time,ax,ay,az
0.006,0.30,0.20,-1.08
0.007,-0.07,0.18,-1.07
0.011,-0.28,0.35,-0.93
0.016,-0.36,0.36,-0.70
0.021,-0.32,0.37,-0.39
0.026,-0.28,0.33,-0.05
0.031,-0.28,0.19,0.19
0.036,-0.35,0.07,0.44
0.041,-0.36,0.01,0.71
0.046,-0.40,-0.14,1.06
0.051,-0.42,-0.18,1.28
0.056,-0.43,-0.18,1.53
0.061,-0.50,-0.11,1.67
0.066,-0.45,-0.09,1.71
0.071,-0.21,0.09,1.44
0.077,-0.06,0.23,1.13
0.081,0.16,0.26,0.79
0.086,0.17,0.34,0.35
0.092,0.17,0.11,-0.16
0.096,0.10,-0.01,-0.60
0.101,0.15,-0.02,-0.81
0.106,0.50,-0.20,-0.80
0.112,0.48,0.05,-0.68
0.116,0.32,0.35,-0.52
0.121,0.25,0.48,-0.24
0.126,0.23,0.47,0.01
0.132,0.09,0.23,0.20
0.137,0.14,-0.04,0.49
0.142,0.20,-0.28,0.78
0.147,0.13,-0.43,1.18
0.152,0.00,-0.45,1.41
0.157,0.03,-0.40,1.64
0.167,0.06,-0.32,1.79
0.168,0.13,-0.15,1.85
0.172,0.22,0.09,1.80
0.181,0.19,0.38,1.66
0.182,0.05,0.71,1.63
0.188,-0.26,0.82,1.37
0.196,-0.60,0.56,1.07
0.201,-0.81,-0.04,0.52
0.202,-0.90,-0.68,-0.10
0.207,-0.96,-1.02,-0.66
0.212,-0.95,-0.96,-1.04
0.217,-0.92,-0.70,-1.18
0.222,-0.75,-0.34,-1.23
0.227,-0.40,-0.03,-1.08
0.232,-0.01,0.17,-0.76
0.237,0.30,0.28,-0.43
0.242,0.53,0.19,-0.04
0.247,0.75,0.09,0.44
0.252,0.98,-0.00,0.83
0.257,1.02,-0.21,1.14
0.264,0.86,-0.35,1.47
0.267,0.48,-0.23,1.73
0.273,0.05,-0.19,1.82
0.279,-0.25,-0.44,1.69
0.283,-0.39,-0.96,1.35
0.288,-0.40,-1.65,0.75
0.293,-0.35,-2.09,-0.04
0.301,-0.09,-2.07,-0.64
0.303,0.28,-1.58,-0.90
0.308,0.66,-0.99,-0.93
0.313,0.96,-0.37,-0.81
0.318,1.05,0.15,-0.55
0.323,0.95,0.48,-0.14
0.328,0.75,0.64,0.25
0.334,0.36,0.63,0.61
0.338,-0.18,0.60,0.83
0.343,-0.55,0.56,0.97
0.348,-0.66,0.50,1.05
0.353,-0.57,0.57,1.03
0.358,-0.44,0.72,0.90
0.363,-0.45,0.82,0.60
0.368,-0.50,0.66,0.14
0.373,-0.43,0.05,-0.56
0.378,-0.19,-0.67,-1.45
0.383,0.15,-1.11,-2.33
0.388,0.63,-1.20,-2.68
0.393,1.19,-1.07,-2.56
0.398,1.66,-0.83,-2.10
0.403,1.84,-0.47,-1.64
0.408,1.74,-0.03,-1.06
0.413,1.52,0.19,0.02
0.418,1.06,0.23,0.94
0.423,0.34,0.21,1.33
0.429,-0.36,0.10,1.61
0.434,-0.94,0.04,1.85
0.439,-1.40,0.13,1.94
0.444,-1.65,0.32,2.09
0.449,-1.42,0.36,2.11
0.454,-0.91,0.17,1.94
0.459,-0.58,0.01,1.60
0.476,-0.35,-0.03,1.27
0.477,-0.11,-0.04,1.02
0.478,0.39,-0.13,0.06
0.478,1.39,-0.17,-1.27
0.484,2.08,-0.22,-0.24
0.489,2.11,-0.47,0.87
0.494,2.09,-0.82,1.17
0.499,1.67,-0.95,0.39
0.504,1.34,-0.95,-0.34
0.509,1.08,-0.95,-0.84
0.514,0.51,-0.85,-1.26
0.519,-0.02,-0.59,-1.66
0.524,-0.12,-0.41,-2.78
0.529,-0.05,-0.25,-2.93
0.534,0.42,-0.23,-2.68
0.539,0.92,-0.33,-2.61
0.544,1.33,-0.58,-2.91
0.549,1.39,-0.73,-2.75
0.554,1.55,-0.53,-2.90
0.559,1.51,0.44,-2.58
0.565,1.21,1.22,-1.22
0.569,-0.14,2.09,3.71
0.575,0.04,2.81,5.91
0.583,-0.25,2.47,4.92
0.585,-0.30,1.95,4.62
0.590,-0.04,1.55,3.93
0.595,-0.04,1.68,3.28
0.600,-0.55,1.66,2.65
0.604,-1.34,1.58,1.58
0.609,-2.29,1.56,0.28
0.615,-2.99,1.23,-0.94
0.620,-3.40,0.60,-1.84
0.625,-3.58,-0.08,-2.25
0.630,-3.29,-0.70,-2.31
0.635,-3.07,-1.20,-1.83
0.640,-2.52,-1.61,-0.94
0.645,-1.94,-1.36,0.12
0.650,0.08,-0.00,0.86
0.655,1.50,1.38,1.69
0.660,1.91,1.43,2.25
0.669,1.25,0.83,1.78
0.670,0.54,0.34,1.01
0.675,1.12,0.07,0.09
0.684,1.39,-0.18,-0.72
0.685,1.67,-0.32,-0.80
0.690,1.56,-0.51,-1.36
0.695,0.79,0.08,-1.62
0.700,-0.51,1.05,-1.36
0.705,-1.15,1.78,-0.94
0.710,-1.36,2.07,-0.10
0.715,-0.93,1.71,-0.12
0.720,-1.67,1.46,-0.16
0.725,-1.71,1.40,-0.02
0.732,-1.35,1.52,0.04
0.735,-0.52,1.32,-0.59
0.740,0.05,1.00,-1.02
0.745,0.29,0.62,-1.17
0.750,0.39,0.39,-1.24
0.756,0.24,0.30,-1.48
0.761,0.39,0.24,-1.58
0.766,0.82,0.09,-1.34
0.770,0.70,-0.10,-0.79
0.776,0.71,-0.97,-1.02
0.782,0.51,-0.63,-0.41
0.782,0.66,-0.55,-0.64
0.789,1.04,-0.10,-0.06
0.790,1.33,-0.08,-0.04
0.796,0.70,-0.11,-0.54
0.801,0.38,-0.53,-0.57
0.806,0.09,-0.93,-0.68
0.811,-0.18,-0.69,0.08
0.816,0.12,-0.43,1.15
0.821,0.39,-0.36,1.27
0.826,0.56,-0.83,0.57
0.831,0.39,-0.85,0.18
0.836,0.51,-0.58,0.08
0.841,0.75,-0.78,0.40
0.846,1.04,-1.00,1.24
0.852,1.19,-1.71,1.83
0.856,1.17,-2.63,2.51
0.861,0.96,-3.54,2.76
0.868,1.03,-3.85,2.55
0.871,2.01,-3.69,2.24
0.876,2.42,-3.48,1.70
0.881,2.00,-3.14,0.76
0.886,1.32,-2.91,-0.28
0.891,0.76,-2.52,-0.90
0.896,0.08,-2.07,-0.92
0.901,-0.36,-1.65,-0.76
0.906,-0.57,-1.50,-0.38
0.911,-0.97,-1.45,-0.47
0.916,-1.22,-1.26,0.24
0.921,-1.41,-1.20,0.70
0.926,-1.56,-1.35,1.10
0.931,-1.35,-1.45,1.27
0.937,-0.75,-1.52,1.36
0.941,-0.33,-1.52,0.96
0.946,-0.11,-1.27,0.17
0.952,-0.12,-0.79,-0.24
0.956,-0.14,-0.38,-0.19
0.962,-0.14,-0.17,0.11
0.968,-0.12,-0.14,0.53
0.972,-0.07,-0.01,0.79
0.977,0.11,0.02,0.83
0.982,0.47,0.03,0.91
0.987,0.80,-0.01,1.49
0.992,0.68,0.08,1.76
0.997,0.44,0.35,1.41
1.002,0.23,0.78,1.03
1.007,-0.04,1.17,0.71
1.012,-0.39,1.60,0.23
1.017,-0.83,1.94,-0.00
1.022,-1.26,2.42,-0.28
1.027,-1.49,2.82,-0.49
1.032,-1.61,3.15,-0.55
1.037,-1.76,3.51,-0.67
1.042,-1.95,3.82,-0.72
1.047,-2.00,4.12,-0.68
1.052,-0.24,4.45,-0.39
1.057,-0.40,4.32,-1.52
1.062,-2.79,4.15,-2.81
1.069,-4.21,4.35,-2.75
1.073,-3.83,4.63,-2.33
1.078,-2.62,4.57,-2.04
1.083,-1.83,4.24,-1.81
1.090,-1.48,3.65,-1.77
1.093,-1.03,3.01,-1.89
1.098,-0.44,2.58,-2.14
1.103,-0.08,2.28,-2.52
1.108,0.76,1.53,-3.19
1.113,1.05,0.87,-3.89
1.119,0.08,1.21,-3.74
1.123,-0.62,1.99,-2.71
1.128,-0.67,2.28,-1.75
1.133,-0.44,1.60,-1.44
1.138,-0.20,0.84,-1.73
1.143,0.07,0.56,-1.62
1.148,0.41,0.60,-0.88
1.153,0.80,0.58,-0.39
1.158,0.95,0.20,-0.11
1.163,1.00,-0.36,-0.16
1.171,1.12,-0.89,-0.78
1.176,0.95,-0.86,-0.91
1.179,0.64,0.09,0.40
1.183,0.49,0.52,1.35
1.189,0.24,-0.09,0.92
1.193,-0.19,-0.65,1.16
1.198,-0.17,-1.13,1.59
1.203,0.33,-1.54,1.66
1.208,0.81,-1.74,1.56
1.213,1.15,-1.41,1.82
1.218,1.43,-0.96,2.04
1.223,1.47,-0.89,1.44
1.228,1.00,-1.23,1.09
1.234,0.78,-1.23,1.17
1.238,1.01,-0.79,0.44
1.243,0.79,-0.33,-0.53
1.248,0.40,-0.21,-0.31
1.254,0.37,-0.62,-0.01
1.259,0.51,-0.80,0.35
1.263,0.64,-0.90,0.64
1.271,1.03,-1.16,1.17
1.274,1.39,-1.51,1.37
1.279,1.42,-1.77,1.47
1.284,0.92,-1.86,1.36
1.289,0.75,-1.29,0.89
1.294,0.38,-0.69,0.57
1.299,-0.10,-0.18,0.34
1.304,-0.45,0.24,0.16
1.309,-0.28,0.52,0.13
1.314,0.10,0.61,0.19
1.319,0.15,0.72,0.28
1.324,0.49,0.90,0.39
1.329,1.06,0.98,0.52
1.334,1.33,0.91,0.68
1.339,1.48,0.82,0.79
1.344,1.28,0.74,0.94
1.349,0.61,0.53,1.14
1.355,-0.04,0.44,1.37
1.359,-0.88,0.34,1.96
1.364,-1.46,0.10,2.14
1.371,-1.72,-0.24,2.12
1.374,-1.87,-0.63,1.92
1.379,-1.95,-1.05,1.56
1.384,-1.67,-1.59,1.25
1.389,-1.32,-2.16,1.00
1.394,-0.98,-2.38,0.85
1.399,-0.77,-2.42,0.66
1.404,-0.59,-2.36,0.58
1.409,-0.49,-2.27,0.50
1.414,-0.13,-2.24,0.42
1.420,0.20,-1.94,0.38
1.425,0.70,-1.78,0.15
1.430,1.26,-1.86,0.21
1.435,1.62,-2.03,0.23
1.440,1.55,-1.83,0.05
1.445,1.16,-1.34,-0.12
1.450,1.07,-0.87,-0.44
1.457,1.06,-0.44,-1.10
1.460,0.86,-0.02,-1.57
1.465,0.67,0.38,-1.77
1.473,0.64,0.63,-1.59
1.475,0.47,0.77,-1.23
1.480,0.31,0.75,-0.88
1.485,0.21,0.72,-0.66
1.491,0.11,0.66,-0.51
1.495,0.20,0.69,-0.39
1.501,0.16,0.77,-0.25
1.510,0.22,1.01,-0.52
1.511,0.28,1.03,-0.68
1.516,0.04,1.27,-0.92
1.522,0.05,1.47,-0.91
1.526,0.01,1.66,-0.70
1.531,-0.06,2.64,0.38
1.541,0.23,2.36,0.33
1.544,0.51,2.29,0.17
1.546,0.69,1.93,-0.07
1.551,1.15,1.78,-0.26
1.556,1.24,1.50,0.06
1.562,1.42,1.00,0.48
1.568,1.52,0.56,1.14
1.577,1.68,0.12,1.49
1.580,1.61,-0.31,1.76
1.582,1.42,-0.63,1.98
1.586,0.84,-0.94,2.36
1.602,0.37,-1.14,2.35
1.603,-0.23,-1.18,2.33
1.604,-0.55,-1.36,1.95
1.605,-0.84,-1.29,1.63
1.607,-0.74,-1.40,1.47
1.611,-0.85,-1.21,1.22
1.616,-0.71,-0.97,0.99
1.624,-0.78,-0.84,0.78
1.626,-0.70,-0.61,0.42
1.631,-0.21,-0.36,-0.01
1.636,0.20,-0.11,-0.49
1.641,1.03,-0.38,-1.05
1.647,1.78,-0.65,-1.70
1.654,2.25,-0.82,-2.16
1.661,2.27,-1.03,-2.21
1.663,2.15,-1.12,-2.17
1.667,1.65,-1.10,-1.97
1.673,0.91,-0.92,-1.67
1.697,0.23,-0.53,-1.21
1.699,-0.25,-0.21,-0.41
1.701,-0.50,0.04,0.21
1.702,-0.75,0.30,0.79
1.704,-0.77,0.70,1.18
1.706,-0.58,0.81,1.44
1.708,-0.17,0.81,1.45
1.715,0.26,0.67,1.32
1.717,0.77,0.50,1.16
1.722,1.23,0.31,1.06
1.729,1.76,0.12,0.95
1.732,2.24,-0.07,0.84
1.737,1.82,1.63,0.41
1.745,1.39,2.52,1.87
1.747,1.58,2.86,1.66
1.752,1.81,3.06,1.29
1.761,1.83,3.44,1.12
1.762,2.05,3.83,1.11
1.767,2.25,4.23,1.12
1.782,2.64,4.44,1.21
1.783,3.02,4.46,1.28
1.784,3.26,4.62,1.32
1.787,3.52,4.82,1.34
1.792,4.02,4.84,0.58
1.797,4.30,4.84,-0.21
1.805,4.39,5.01,-0.55
1.808,4.44,5.40,-0.68
1.813,4.45,5.68,-0.88
1.817,4.48,5.98,-0.89
1.822,4.45,6.29,-0.58
1.828,4.28,6.55,-0.24
1.835,4.09,6.79,0.14
1.838,3.90,7.02,0.54
1.843,3.67,7.12,0.89
1.848,3.49,7.27,1.15
1.854,3.30,7.33,1.32
1.858,3.08,7.34,1.39
1.867,2.96,7.38,1.40
1.869,2.94,7.35,1.55
1.882,2.93,7.25,1.71
1.888,3.14,6.71,1.77
1.890,3.55,5.88,1.59
1.891,3.72,5.40,1.25
1.919,3.64,5.27,0.95
1.922,3.47,5.45,0.84
1.923,3.19,6.01,1.07
1.925,3.13,6.25,1.53
1.926,3.66,5.57,1.33
1.928,3.63,3.84,-0.07
1.931,1.36,-0.29,-0.21
1.932,-0.95,-7.16,1.66
1.935,-1.22,-16.43,2.32
1.938,-2.47,-28.85,3.77
1.944,-2.18,-37.99,5.46
1.948,-0.75,-39.48,4.83
1.954,-1.54,-39.26,4.49
1.959,-1.71,-39.39,5.40
1.964,-0.49,-37.20,7.03
1.969,1.02,-31.20,7.68
1.974,1.19,-22.87,6.11
1.989,0.96,-15.79,3.92
1.992,1.26,-10.42,2.52
1.994,1.65,-6.19,1.57
1.996,1.90,-3.04,1.00
1.999,1.75,-0.28,0.37
2.004,1.83,1.96,-0.28
2.011,1.83,3.63,-0.69
2.013,1.63,4.99,-1.20
2.018,1.80,7.37,-7.12
2.023,2.45,10.11,-12.23
2.029,2.79,10.48,-7.23
2.033,2.44,10.30,-5.95
2.038,1.73,9.73,-4.34
2.044,0.88,8.78,-3.23
2.049,0.32,7.54,-2.29
2.054,0.12,6.54,-1.40
2.059,0.02,5.73,-0.85
2.065,0.01,4.71,-0.37
2.070,-0.00,3.32,0.07
2.075,-0.01,1.93,0.47
2.085,0.08,0.41,0.79
2.087,0.12,-1.24,1.19
2.089,0.13,-2.87,1.55
2.125,0.04,-4.23,1.93
2.128,-0.14,-5.40,2.45
2.132,-0.33,-6.32,2.78
2.133,-0.58,-6.65,2.72
2.134,-0.83,-6.44,2.41
2.135,-1.01,-5.53,2.06
2.136,-0.99,-4.12,1.48
2.137,-0.72,-2.76,0.96
2.138,-0.39,-1.59,0.41
2.139,-0.05,-0.65,0.07
2.144,0.21,0.06,-0.20
2.150,0.41,0.62,-0.56
2.155,0.50,0.96,-0.75
2.161,0.63,1.28,-0.87
2.165,0.74,1.41,-0.90
2.170,0.85,1.48,-0.89
2.175,0.84,1.34,-0.85
2.185,0.84,1.14,-0.76
2.187,0.73,0.95,-0.64
2.190,0.57,0.65,-0.57
2.228,0.45,0.36,-0.35
2.230,0.28,0.02,-0.17
2.232,0.03,-0.24,-0.09
2.234,-0.23,-0.43,0.23
2.235,-0.56,-0.58,0.35
2.237,-0.87,-0.65,0.58
2.238,-1.12,-0.70,0.69
2.244,-1.41,-0.66,0.84
2.246,-1.60,-0.55,0.95
2.249,-1.72,-0.52,0.91
2.251,-1.82,-0.51,1.13
2.253,-1.76,-0.46,1.08
2.256,-1.68,-0.39,0.97
2.268,-1.44,-0.27,0.94
2.269,-1.24,-0.14,0.80
2.271,-0.98,-0.09,0.55
2.275,-0.83,-0.03,0.53
2.283,-0.61,0.11,0.34
2.286,-0.48,0.06,0.21
2.290,-0.39,0.04,0.15
2.320,-0.26,-0.07,-0.01
2.322,-0.23,-0.16,-0.19
2.323,-0.18,-0.16,-0.33
2.325,-0.12,-0.18,-0.39
2.326,-0.12,-0.22,-0.54
2.327,-0.09,-0.42,-0.56
2.328,-0.08,-0.37,-0.69
2.331,-0.11,-0.31,-0.81
2.335,-0.03,-0.30,-1.07
2.340,-0.06,-0.17,-1.21
2.345,-0.09,-0.07,-1.28
2.351,-0.01,-0.13,-1.25
2.356,0.32,-0.38,-0.96
2.367,0.39,-0.52,-0.75
2.368,0.44,-0.60,-0.58
2.371,0.56,-0.56,-0.31
2.376,0.46,-0.57,-0.13
2.391,0.40,-0.54,-0.02
2.391,0.24,-0.39,0.06
2.392,0.07,-0.40,0.29
2.396,-0.06,-0.32,0.26
2.401,-0.13,-0.20,0.49
2.406,-0.16,-0.21,0.47
2.412,-0.21,-0.12,0.40
2.413,-0.22,-0.08,0.37
2.418,-0.39,0.01,0.44
2.421,-0.39,0.07,0.36
2.426,-0.45,0.14,0.30
2.431,-0.44,0.08,0.32
2.436,-0.48,0.02,0.40
2.441,-0.42,-0.13,0.35
2.446,-0.40,-0.12,0.29
2.451,-0.19,-0.17,0.19
2.456,-0.24,-0.29,0.14
2.461,-0.23,-0.20,0.09
2.466,-0.33,-0.24,0.01
2.471,-0.33,-0.22,0.01
2.476,-0.29,-0.19,0.02
2.492,-0.30,-0.19,0.05
2.493,-0.35,-0.23,0.05
2.494,-0.28,-0.19,-0.03
2.497,-0.36,-0.13,-0.01
2.501,-0.31,-0.08,0.11
2.506,-0.22,-0.13,0.13
2.512,-0.16,-0.13,0.17
2.517,-0.06,-0.26,0.28
2.521,0.06,-0.26,0.21
2.526,0.04,-0.38,0.18
2.531,-0.06,-0.45,0.31
2.536,-0.09,-0.41,0.26
2.542,-0.05,-0.46,0.22
2.547,-0.11,-0.39,0.18
2.552,-0.22,-0.36,0.17
2.557,-0.25,-0.33,0.11
2.562,-0.22,-0.34,0.10
2.573,-0.21,-0.31,0.08
2.574,-0.19,-0.21,-0.05
2.577,-0.20,-0.26,-0.11
2.582,-0.18,-0.27,-0.11
2.587,-0.16,-0.24,-0.10
2.592,-0.09,-0.24,-0.07
2.597,-0.15,-0.22,-0.12
2.602,-0.18,-0.16,-0.14
2.607,-0.22,-0.25,-0.19
2.612,-0.20,-0.29,-0.22
2.617,-0.18,-0.12,-0.25
2.622,-0.23,-0.11,-0.26
2.627,-0.23,-0.14,-0.21
2.632,-0.21,-0.14,-0.22
2.637,-0.22,-0.06,-0.25
2.642,-0.27,-0.10,-0.23
2.647,-0.30,-0.16,-0.23
2.653,-0.29,-0.13,-0.23
2.657,-0.29,-0.08,-0.23
2.662,-0.30,-0.13,-0.12
2.668,-0.32,-0.15,-0.05
2.672,-0.37,-0.15,-0.03
2.678,-0.37,-0.23,0.00
2.690,-0.35,-0.21,0.15
2.691,-0.36,-0.22,0.13
2.695,-0.34,-0.22,0.08
2.705,-0.35,-0.23,0.17
2.706,-0.38,-0.26,0.19
2.707,-0.39,-0.26,0.18
2.713,-0.39,-0.28,0.23
2.718,-0.39,-0.30,0.20
2.723,-0.34,-0.30,0.21
2.728,-0.36,-0.29,0.25
2.733,-0.43,-0.20,0.21
2.738,-0.56,-0.08,0.21
2.743,-0.66,0.02,0.19
2.748,-0.70,0.13,0.17
2.753,-0.64,0.08,0.21
2.758,-0.48,-0.11,0.23
2.763,-0.31,-0.21,0.28
2.768,-0.14,-0.37,0.34
2.773,0.02,-0.47,0.43
2.778,0.20,-0.50,0.53
2.785,0.31,-0.58,0.56
2.788,0.43,-0.52,0.55
2.793,0.62,-0.44,0.49
2.798,0.75,-0.36,0.50
2.803,0.77,-0.32,0.45
2.808,0.78,-0.27,0.33
2.813,0.75,-0.21,0.26
2.818,0.70,-0.12,0.11
2.823,0.60,-0.11,-0.04
2.828,0.57,-0.17,-0.09
2.833,0.60,-0.19,-0.14
2.838,0.62,-0.23,-0.11
2.843,0.67,-0.29,-0.10
2.848,0.69,-0.32,-0.05
2.853,0.66,-0.35,0.01
2.858,0.65,-0.32,0.05
2.863,0.61,-0.27,0.21
2.875,0.61,-0.25,0.30
2.876,0.54,-0.18,0.32
2.879,0.49,-0.18,0.33
2.885,0.44,-0.19,0.42
2.889,0.37,-0.21,0.41
2.894,0.28,-0.17,0.35
2.899,0.13,-0.17,0.38
2.904,0.03,-0.21,0.44
2.909,-0.05,-0.22,0.48
2.914,-0.09,-0.24,0.42
2.919,-0.17,-0.30,0.35
2.924,-0.18,-0.28,0.32
2.929,-0.27,-0.24,0.34
2.934,-0.37,-0.18,0.33
2.939,-0.42,-0.14,0.24
2.944,-0.43,-0.05,0.23
2.950,-0.46,-0.09,0.21
2.954,-0.47,-0.09,0.12
2.959,-0.58,-0.08,0.10
2.964,-0.59,-0.07,0.17
2.969,-0.57,0.01,0.05
2.974,-0.66,-0.02,0.00
2.979,-0.74,-0.02,0.03
2.993,-0.77,-0.06,0.01
2.994,-0.84,-0.08,0.01
2.994,-0.83,-0.11,-0.04
3.004,-0.80,-0.23,-0.09
3.005,-0.90,-0.23,-0.10
3.009,-0.94,-0.24,-0.15
3.014,-0.85,-0.26,-0.18
3.020,-0.82,-0.36,-0.32
3.024,-0.83,-0.38,-0.26
3.029,-0.79,-0.39,-0.22
3.034,-0.66,-0.28,-0.17
3.039,-0.65,-0.20,-0.23
3.044,-0.65,-0.29,-0.23
3.050,-0.77,-0.28,-0.29
3.055,-0.64,-0.25,-0.27
3.060,-0.66,-0.29,-0.14
3.065,-0.69,-0.21,-0.15
3.070,-0.72,-0.24,-0.05
3.075,-0.65,-0.33,-0.17
3.080,-0.62,-0.26,-0.13
3.086,-0.66,-0.28,-0.12
3.090,-0.61,-0.21,-0.07
3.095,-0.60,-0.18,-0.01
3.100,-0.61,-0.16,-0.05
3.107,-0.58,-0.13,-0.04
3.110,-0.60,-0.18,-0.04
3.115,-0.53,-0.17,0.02
3.120,-0.42,-0.12,-0.01
3.125,-0.43,-0.17,-0.12
3.130,-0.41,-0.15,-0.05
3.135,-0.42,-0.09,0.03
3.140,-0.39,-0.19,0.13
3.145,-0.38,-0.17,-0.10
3.150,-0.36,-0.20,0.02
3.155,-0.26,-0.15,-0.02
3.160,-0.33,-0.16,-0.11
3.165,-0.24,-0.27,-0.05
3.170,-0.42,-0.11,-0.28
3.175,-0.28,-0.16,-0.86
3.181,-0.13,0.02,-1.66
3.185,-0.07,-0.01,-2.52
3.190,-0.09,-0.08,-2.67
3.195,-0.35,-0.20,-2.21
3.201,-0.53,-0.54,-1.26
3.206,-0.61,-0.72,-0.41
3.211,-0.63,-0.64,0.40
3.216,-0.54,-0.47,1.99
3.216,-0.78,0.68,8.39
3.221,-0.54,1.18,7.72
3.226,0.12,1.22,5.62
3.231,-0.32,1.11,4.21
3.236,-1.08,0.59,1.12
3.241,-1.27,0.08,-0.67
3.246,-1.41,-0.42,-1.00
3.251,-1.12,-0.74,-1.01
3.256,-0.85,-0.97,-1.72
3.261,-0.39,-1.14,-2.56
3.266,-0.23,-1.12,-2.67
3.271,-0.19,-1.11,-2.31
3.276,-0.04,-0.82,-2.00
3.281,0.17,-0.59,-1.69
3.290,0.24,-0.38,-1.00
3.291,0.37,-0.33,-0.54
3.296,0.41,-0.29,-0.27
3.301,0.26,-0.23,0.06
3.306,0.32,-0.46,0.22
3.311,0.36,-0.67,0.27
3.316,0.26,-0.83,0.38
3.322,0.14,-0.80,0.47
3.330,0.08,-0.68,0.48
3.332,0.06,-0.54,0.67
3.336,0.03,-0.44,0.73
3.341,0.12,-0.23,0.85
3.346,0.11,-0.10,0.85
3.352,0.13,-0.03,0.81
3.357,0.21,0.04,0.69
3.362,0.23,0.04,0.68
3.367,0.16,0.10,0.75
3.372,0.16,0.08,0.68
3.376,0.15,0.05,0.74
3.381,0.11,0.02,0.71
3.399,-0.00,-0.04,0.66
3.399,-0.15,-0.06,0.57
3.400,-0.22,-0.12,0.50
3.402,-0.31,-0.16,0.34
3.407,-0.30,-0.14,0.08
3.412,-0.26,-0.17,-0.07
3.417,-0.25,-0.18,-0.30
3.422,-0.24,-0.17,-0.47
3.427,-0.14,-0.10,-0.54
3.432,-0.04,-0.09,-0.55
3.437,-0.01,-0.05,-0.53
3.442,-0.14,0.01,-0.48
3.447,-0.35,0.01,-0.39
3.452,-0.44,-0.05,-0.37
3.457,-0.49,-0.12,-0.21
3.462,-0.46,-0.26,-0.02
3.467,-0.35,-0.31,0.12
3.476,-0.26,-0.41,0.21
3.477,-0.13,-0.36,0.22
3.483,0.03,-0.30,0.32
3.491,0.12,-0.46,0.28
3.492,0.13,-0.44,0.19
3.497,0.06,-0.32,0.06
3.502,0.03,-0.27,-0.07
3.507,-0.04,-0.25,-0.13
3.512,-0.07,-0.23,-0.27
3.517,-0.04,-0.17,-0.34
3.522,-0.04,-0.18,-0.32
3.527,-0.07,-0.19,-0.37
3.532,-0.10,-0.17,-0.38
3.538,-0.17,-0.15,-0.37
3.543,-0.22,-0.22,-0.26
3.547,-0.26,-0.30,-0.12
3.553,-0.30,-0.25,-0.10
3.558,-0.33,-0.23,0.01
3.563,-0.36,-0.27,0.11
3.568,-0.40,-0.28,0.16
3.573,-0.42,-0.27,0.26
3.578,-0.45,-0.27,0.32
3.583,-0.49,-0.22,0.33
3.591,-0.53,-0.18,0.31
3.593,-0.51,-0.21,0.24
3.598,-0.39,-0.19,0.15
3.603,-0.27,-0.22,0.07
3.608,-0.13,-0.26,-0.01
3.613,-0.04,-0.24,-0.02
3.618,0.06,-0.22,-0.05
3.623,0.15,-0.21,-0.02
3.628,0.12,-0.22,-0.05
3.633,0.09,-0.18,-0.10
3.638,0.17,-0.12,-0.08
3.643,0.14,-0.10,-0.10
3.648,0.11,-0.10,-0.12
3.653,0.08,-0.16,-0.17
3.658,-0.03,-0.15,-0.17
3.663,-0.10,-0.18,-0.20
3.668,-0.08,-0.17,-0.17
3.674,-0.04,-0.15,-0.20
3.678,-0.05,-0.16,-0.33
3.684,-0.07,-0.20,-0.40
3.694,-0.08,-0.28,-0.43
3.695,-0.16,-0.29,-0.46
3.698,-0.23,-0.31,-0.44
3.704,-0.24,-0.31,-0.49
3.709,-0.22,-0.35,-0.59
3.714,-0.22,-0.37,-0.65
3.719,-0.21,-0.36,-0.66
3.724,-0.16,-0.38,-0.68
3.729,-0.10,-0.32,-0.64
3.734,-0.09,-0.30,-0.63
3.739,-0.06,-0.32,-0.58
3.744,-0.11,-0.37,-0.56
3.749,-0.20,-0.47,-0.47
3.754,-0.17,-0.47,-0.42
3.759,-0.22,-0.41,-0.39
3.764,-0.30,-0.43,-0.36
3.769,-0.45,-0.42,-0.52
3.775,-0.50,-0.40,-0.53
3.779,-0.47,-0.43,-0.40
3.784,-0.36,-0.42,-0.29
3.792,-0.40,-0.47,-0.20
3.794,-0.36,-0.39,-0.09
3.799,-0.39,-0.37,0.02
3.804,-0.44,-0.40,0.16
3.809,-0.49,-0.42,0.31
3.814,-0.55,-0.35,0.45
3.819,-0.54,-0.39,0.66
3.824,-0.60,-0.27,0.69
3.830,-0.63,-0.22,0.81
3.834,-0.59,-0.16,0.92
3.839,-0.54,-0.11,0.87
3.844,-0.61,-0.10,0.88
3.849,-0.55,0.06,0.83
3.854,-0.58,0.02,0.77
3.860,-0.59,0.11,0.81
3.865,-0.59,0.10,0.73
3.870,-0.53,0.07,0.62
3.875,-0.49,0.02,0.55
3.880,-0.45,-0.01,0.45
3.885,-0.37,-0.02,0.30
3.894,-0.35,-0.08,0.25
3.895,-0.26,-0.13,0.20
3.900,-0.24,-0.17,0.10
3.905,-0.18,-0.13,0.00
3.910,-0.08,-0.14,-0.06
3.915,0.06,-0.05,-0.15
3.920,0.16,-0.12,-0.25
3.925,0.32,0.00,-0.37
3.930,0.43,-0.16,-0.64
3.935,0.61,-0.19,-0.78
3.941,0.71,-0.08,-0.90
3.946,0.81,-0.15,-1.03
3.950,0.95,-0.30,-1.09
3.956,0.95,-0.34,-1.15
3.961,0.84,-0.52,-1.11
3.966,0.64,-0.51,-0.97
3.971,0.50,-0.46,-0.91
3.980,0.29,-0.42,-0.88
3.983,0.11,-0.39,-0.90
3.986,-0.08,-0.28,-0.74
3.992,-0.22,-0.11,-0.57
4.008,-0.40,-0.07,-0.45
4.010,-0.58,0.03,-0.41
4.011,-0.84,0.01,-0.19
4.012,-1.04,0.00,-0.04
4.016,-1.07,-0.01,0.00
4.021,-1.23,-0.10,0.09
4.027,-1.35,-0.03,0.21
4.028,-1.34,-0.00,0.15
4.031,-1.43,0.04,0.32
4.036,-1.45,0.00,0.25
4.041,-1.41,0.11,0.27
4.046,-1.27,0.24,0.21
4.051,-1.25,0.11,0.25
4.056,-1.19,0.04,0.22
4.061,-1.15,0.08,0.14
4.066,-1.06,0.07,0.02
4.072,-0.94,0.04,-0.02
4.083,-0.83,0.00,-0.12
4.086,-0.84,-0.04,-0.10
4.088,-0.77,-0.01,-0.31
4.092,-0.69,-0.02,-0.37
4.135,-0.66,0.06,-0.39
4.138,-0.63,-0.08,-0.58
4.140,-0.58,-0.10,-0.72
4.142,-0.51,-0.07,-0.71
4.144,-0.47,-0.14,-0.80
4.146,-0.49,-0.07,-0.95
4.148,-0.38,-0.05,-0.92
4.150,-0.22,-0.05,-0.97
4.152,-0.19,-0.04,-1.08
4.154,-0.19,-0.07,-1.10
4.156,-0.17,-0.05,-1.10
4.158,-0.16,-0.08,-1.10
4.161,-0.13,-0.06,-1.10
4.164,-0.21,-0.07,-1.10
4.168,-0.22,-0.04,-1.12
4.173,-0.31,-0.10,-1.06
4.190,-0.36,-0.11,-1.05
4.192,-0.45,-0.09,-1.03
4.193,-0.53,-0.10,-0.99
4.194,-0.65,-0.12,-0.96
4.198,-0.73,-0.23,-0.97
4.202,-0.79,-0.26,-1.00
4.208,-0.76,-0.26,-0.99
4.230,-0.70,-0.20,-1.01
4.232,-0.63,-0.25,-1.02
4.233,-0.71,-0.19,-1.10
4.238,-0.75,-0.20,-1.21
4.239,-0.76,-0.19,-1.30
4.241,-0.83,-0.07,-1.37
4.243,-0.83,-0.10,-1.46
4.248,-0.88,-0.13,-1.59
4.253,-0.94,-0.11,-1.69
4.258,-1.01,-0.16,-1.75
4.263,-1.10,-0.08,-1.84
4.268,-1.15,-0.10,-1.85
4.273,-1.16,-0.12,-1.83
4.286,-1.12,-0.09,-1.87
4.288,-1.06,-0.09,-1.87
4.288,-1.01,-0.12,-1.74
4.294,-0.98,-0.10,-1.55
4.315,-0.95,-0.02,-1.41
4.316,-0.92,-0.02,-1.33
4.318,-0.90,0.01,-1.10
4.319,-0.90,0.04,-0.93
4.320,-0.92,0.02,-0.83
4.323,-0.93,0.02,-0.68
4.328,-0.93,0.01,-0.52
4.334,-0.94,-0.06,-0.41
4.338,-0.91,-0.15,-0.28
4.343,-0.93,-0.19,-0.15
4.349,-1.03,-0.29,-0.01
4.353,-1.07,-0.40,0.01
4.358,-1.06,-0.51,-0.01
4.363,-1.03,-0.62,0.01
4.368,-1.03,-0.73,0.03
4.374,-1.02,-0.80,0.09
4.383,-1.00,-0.86,0.12
4.385,-0.98,-1.04,0.16
4.388,-0.94,-1.25,0.21
4.394,-0.96,-1.42,0.23
4.412,-0.99,-1.54,0.20
4.415,-0.97,-1.62,0.16
4.417,-0.90,-1.74,0.14
4.418,-0.84,-1.80,0.08
4.419,-0.83,-1.76,0.03
4.424,-0.81,-1.81,-0.15
4.429,-0.76,-1.95,-0.43
4.434,-0.70,-2.05,-0.61
4.439,-0.73,-2.09,-0.89
4.444,-0.91,-2.07,-1.36
4.449,-1.17,-2.11,-1.90
4.454,-1.45,-2.12,-2.53
4.460,-1.85,-2.14,-3.30
4.464,-2.30,-2.16,-4.19
4.469,-2.74,-2.01,-5.15
4.474,-3.19,-1.88,-5.90
4.485,-3.51,-1.76,-6.10
4.487,-3.61,-1.69,-5.71
4.489,-3.55,-1.62,-4.96
4.494,-3.38,-1.59,-4.05
4.521,-3.13,-1.58,-3.17
4.523,-2.96,-1.63,-2.49
4.524,-2.82,-1.76,-2.03
4.525,-2.73,-1.88,-1.58
4.526,-2.68,-1.95,-1.36
4.527,-2.65,-1.98,-1.18
4.530,-2.61,-1.98,-1.09
4.534,-2.52,-2.09,-1.04
4.539,-2.43,-2.15,-1.07
4.544,-2.33,-2.22,-1.13
4.550,-2.14,-2.33,-1.29
4.556,-1.99,-2.36,-1.58
4.559,-1.58,-2.45,-2.07
4.564,-0.98,-2.49,-2.70
4.569,-0.30,-2.55,-3.55
4.575,0.41,-2.44,-4.44
4.585,1.19,-2.30,-5.25
4.588,1.90,-2.17,-5.85
4.590,2.44,-2.05,-6.05
4.595,2.66,-1.88,-5.61
4.617,2.83,-1.83,-4.62
4.618,2.72,-1.83,-3.26
4.619,2.53,-1.86,-1.65
4.619,2.20,-1.80,-0.06
4.620,1.95,-1.69,1.26
4.624,1.85,-1.59,2.41
4.630,1.79,-1.60,3.21
4.634,1.82,-1.51,3.75
4.640,1.95,-1.63,4.11
4.644,2.07,-1.90,4.41
4.651,2.10,-2.03,4.70
4.655,2.15,-2.29,4.96
4.660,2.17,-2.69,5.20
4.669,2.27,-2.83,5.52
4.670,2.41,-3.05,5.85
4.675,2.34,-3.08,6.16
4.698,2.30,-3.11,6.48
4.702,2.16,-2.96,6.74
4.703,2.32,-2.67,6.80
4.704,2.40,-2.27,7.05
4.705,2.50,-2.01,7.35
4.706,2.75,-1.55,7.25
4.711,3.03,-1.19,6.80
4.716,3.13,-0.86,6.14
4.721,3.14,-0.58,4.51
4.726,1.84,-0.53,-3.05
4.739,0.12,-0.87,-8.81
4.741,-0.35,-1.24,-9.16
4.744,-0.32,-1.59,-7.35
4.748,-0.05,-1.83,-4.96
4.751,-0.28,-1.94,-2.53
4.756,-0.50,-2.01,-0.28
4.761,-0.78,-1.95,1.88
4.766,-1.40,-1.70,3.57
4.771,-1.88,-1.39,5.16
4.775,-2.08,-0.96,6.03
4.781,-2.53,-0.57,6.18
4.786,-2.49,-0.33,6.01
4.790,-2.47,-0.09,5.16
4.795,-2.46,0.04,4.42
4.801,-1.83,0.09,3.52
4.806,-0.91,-0.05,2.92
4.812,0.17,-0.09,2.64
4.831,1.29,-0.18,2.38
4.833,1.76,-0.25,2.62
4.834,2.29,-0.44,2.67
4.836,2.73,-0.33,2.80
4.837,3.05,-0.28,2.96
4.841,3.35,-0.30,3.05
4.842,3.41,-0.26,3.09
4.846,3.45,-0.24,3.12
4.851,3.39,0.02,3.24
4.856,3.42,0.19,3.06
4.861,3.32,0.27,3.14
4.870,3.32,0.54,3.31
4.872,3.11,0.74,3.37
4.876,2.93,0.78,3.39
4.905,2.88,0.95,3.53
4.907,2.85,1.11,3.38
4.908,2.85,1.21,3.50
4.909,2.69,1.25,3.53
4.910,2.81,1.40,3.49
4.911,2.78,1.60,3.53
4.912,2.66,1.65,3.32
4.917,2.56,1.71,3.31
4.922,2.55,1.75,3.04
4.927,2.58,1.93,2.83
4.933,2.69,1.92,2.63
4.937,2.59,1.96,2.54
4.941,2.50,1.89,2.46
4.947,2.23,1.93,2.40
4.952,1.95,1.90,2.39
4.957,1.75,1.84,2.40
4.962,1.56,1.75,2.30
4.971,1.39,1.64,2.07
4.973,1.06,1.51,1.97
4.977,0.68,1.29,1.78
4.982,0.51,1.22,1.60
5.006,0.49,1.13,1.25
5.008,0.45,1.10,0.97
5.009,0.33,1.04,0.55
5.010,0.28,1.04,0.30
5.012,0.19,1.06,0.14
5.013,0.02,0.93,-0.03
5.017,-0.15,0.91,-0.25
5.022,-0.33,0.91,-0.33
5.027,-0.47,0.91,-0.32
5.032,-0.70,0.93,-0.41
5.037,-0.93,0.79,-0.42
5.043,-1.08,0.77,-0.43
5.047,-1.06,0.86,-0.48
5.053,-1.00,0.80,-0.48
5.057,-1.05,0.75,-0.45
5.063,-1.14,0.75,-0.48
5.072,-1.19,0.65,-0.57
5.073,-1.19,0.53,-0.82
5.077,-1.30,0.39,-1.05
5.084,-1.59,0.25,-1.48
5.094,-1.76,0.06,-1.93
5.097,-1.84,-0.10,-2.34
5.097,-1.99,-0.27,-2.74
5.103,-2.01,-0.53,-3.02
5.108,-1.82,-0.80,-3.20
5.113,-1.68,-1.09,-3.41
5.117,-1.72,-1.39,-3.55
5.123,-1.78,-1.69,-3.61
5.127,-1.77,-1.91,-3.80
5.133,-1.81,-2.07,-3.97
5.138,-1.95,-2.25,-4.06
5.143,-2.04,-2.34,-4.00
5.153,-2.04,-2.35,-3.82
5.155,-2.00,-2.38,-3.61
5.158,-1.94,-2.34,-3.14
5.164,-1.83,-2.18,-2.56
5.169,-1.64,-2.01,-1.98
5.174,-1.46,-1.68,-1.41
5.182,-1.29,-1.30,-0.87
5.184,-1.07,-0.91,-0.30
5.190,-0.87,-0.48,0.23
5.194,-0.70,-0.17,0.71
5.199,-0.56,0.10,1.16
5.209,-0.38,0.42,1.58
5.211,-0.17,0.71,1.95
5.214,0.09,0.97,2.23
5.256,0.47,1.14,2.50
5.259,0.99,1.14,2.81
5.266,1.53,1.00,3.19
5.270,2.00,0.74,3.51
5.271,2.55,0.32,3.55
5.273,3.12,-0.18,3.45
5.276,3.54,-0.64,3.25
5.278,3.85,-1.16,3.10
5.279,3.92,-1.67,2.87
5.279,3.76,-2.10,2.26
5.280,3.26,-2.50,1.24
5.281,2.26,-2.90,-0.63
5.282,1.00,-3.41,-3.17
5.286,-0.13,-4.02,-5.25
5.290,-0.98,-4.61,-5.81
5.298,-1.25,-5.11,-4.55
5.299,-0.74,-5.63,-2.36
5.307,0.62,-5.96,-0.08
5.308,2.06,-6.07,1.37
5.314,3.05,-5.93,2.15
5.331,3.59,-5.41,2.58
5.333,3.62,-4.69,2.86
5.333,3.36,-3.75,3.25
5.334,3.05,-2.60,3.81
5.340,2.76,-1.47,4.40
5.344,2.69,-0.44,4.81
5.349,2.84,0.68,4.98
5.357,3.04,1.55,5.01
5.359,3.29,2.12,5.08
5.364,3.59,2.67,5.10
5.386,3.64,3.10,5.07
5.388,3.66,3.39,4.80
5.392,3.58,3.66,4.58
5.393,3.16,3.69,4.42
5.394,2.70,3.56,4.49
5.395,2.21,3.01,4.62
5.400,1.76,2.10,4.71
5.420,1.59,1.07,4.65
5.422,1.61,0.03,4.52
5.422,1.61,-1.07,4.25
5.424,1.61,-1.97,3.87
5.425,1.59,-2.64,3.49
5.430,1.40,-3.21,3.09
5.435,1.23,-3.50,2.65
5.440,1.03,-3.76,2.19
5.448,0.73,-3.78,1.64
5.450,0.44,-3.60,1.29
5.455,0.21,-3.53,1.11
5.460,-0.10,-3.22,1.12
5.465,-0.27,-2.80,1.43
5.471,-0.40,-2.40,1.64
5.479,-0.25,-1.88,1.98
5.480,-0.12,-1.34,2.37
5.486,-0.05,-1.00,2.50
5.495,0.12,-0.68,2.65
5.497,0.18,-0.38,2.71
5.500,0.26,-0.14,2.59
5.533,0.30,0.00,2.65
5.535,0.28,0.13,2.69
5.536,0.40,0.00,2.74
5.538,0.28,0.01,2.64
5.539,0.26,0.03,2.50
5.542,0.25,-0.04,2.30
5.543,0.26,-0.20,2.14
5.544,0.23,-0.20,1.83
5.547,0.21,-0.19,1.57
5.551,0.21,-0.11,1.22
5.556,0.12,-0.11,0.90
5.561,0.03,0.07,0.66
5.595,0.07,0.25,0.27
5.598,-0.05,0.29,-0.08
5.600,-0.03,0.47,-0.32
5.601,0.01,0.50,-0.40
5.602,0.28,0.48,-0.50
5.604,0.23,0.55,-0.43
5.605,0.39,0.56,-0.51
5.606,0.35,0.48,-0.44
5.607,0.30,0.40,-0.29
5.636,0.22,0.39,-0.37
5.639,0.11,0.34,-0.27
5.641,0.02,0.23,-0.22
5.643,-0.28,0.25,-0.10
5.644,-0.48,0.18,-0.08
5.645,-0.68,0.13,-0.01
5.647,-0.89,0.10,0.09
5.648,-1.06,0.07,0.07
5.651,-1.28,0.14,0.09
5.652,-1.49,0.06,0.15
5.656,-1.58,0.04,0.25
5.661,-1.73,0.05,-0.00
5.666,-1.83,-0.13,0.06
5.671,-1.89,-0.11,0.04
5.676,-1.92,-0.07,0.00
5.681,-1.80,-0.10,0.04
5.686,-1.67,0.04,0.10
5.694,-1.48,0.28,-0.03
5.697,-1.31,0.35,-0.16
5.701,-1.15,0.44,-0.25
5.726,-0.99,0.50,-0.25
5.727,-0.88,0.62,-0.41
5.728,-0.74,0.66,-0.54
5.728,-0.58,0.81,-0.65
5.732,-0.45,0.75,-0.67
5.735,-0.35,0.75,-0.79
5.737,-0.25,0.77,-0.83
5.741,-0.24,0.54,-0.90
5.747,-0.29,0.46,-0.98
5.751,-0.29,0.41,-1.15
5.756,-0.30,0.32,-1.16
5.761,-0.15,0.29,-1.18
5.766,0.04,0.23,-1.30
5.780,0.19,0.26,-1.24
5.781,0.32,0.30,-1.43
5.782,0.40,0.42,-1.45
5.787,0.56,0.46,-1.56
5.812,0.71,0.58,-1.66
5.814,0.79,0.53,-1.72
5.815,0.80,0.53,-1.76
5.816,0.83,0.52,-1.86
5.817,0.84,0.49,-1.85
5.818,0.92,0.43,-1.78
5.824,0.98,0.42,-1.72
5.829,0.83,0.21,-1.62
5.832,0.66,0.00,-1.61
5.837,0.48,-0.19,-1.55
5.843,0.37,-0.33,-1.51
5.847,0.29,-0.52,-1.52
5.853,0.18,-0.76,-1.40
5.857,0.08,-0.87,-1.35
5.863,-0.05,-0.89,-1.35
5.867,-0.18,-0.92,-1.35
5.872,-0.34,-0.88,-1.39
5.880,-0.58,-0.79,-1.45
5.883,-0.79,-0.79,-1.52
5.888,-1.05,-0.79,-1.56
5.917,-1.28,-0.63,-1.63
5.919,-1.53,-0.51,-1.71
5.920,-1.72,-0.53,-1.67
5.921,-1.85,-0.51,-1.68
5.923,-1.95,-0.46,-1.66
5.924,-2.02,-0.49,-1.54
5.925,-2.01,-0.52,-1.47
5.929,-1.95,-0.57,-1.41
5.933,-1.88,-0.70,-1.30
5.938,-1.71,-0.89,-1.22
5.943,-1.48,-1.02,-1.07
5.948,-1.27,-1.12,-0.98
5.953,-1.06,-1.20,-0.97
5.958,-0.97,-1.32,-0.88
5.963,-0.91,-1.49,-0.80
5.968,-0.79,-1.57,-0.83
5.973,-0.64,-1.66,-0.75
5.979,-0.49,-1.76,-0.72
5.983,-0.29,-1.90,-0.76
5.988,-0.06,-2.05,-0.77
6.002,0.10,-2.26,-0.86
6.004,0.16,-2.50,-0.96
6.004,0.12,-2.66,-1.11
6.008,0.07,-2.81,-1.40
6.013,-0.08,-2.86,-1.71
6.018,-0.39,-2.73,-2.07
6.023,-0.82,-2.52,-2.57
6.028,-1.28,-2.29,-2.99
6.033,-1.75,-2.09,-3.27
6.038,-2.14,-2.04,-3.60
6.043,-2.45,-2.00,-3.86
6.048,-2.82,-1.96,-4.10
6.055,-3.16,-2.04,-4.25
6.060,-3.44,-2.09,-4.22
6.064,-3.73,-2.17,-4.22
6.069,-3.97,-2.26,-4.08
6.074,-4.14,-2.31,-3.74
6.080,-4.21,-2.44,-3.58
6.085,-4.07,-2.62,-3.54
6.090,-3.89,-2.85,-3.62
6.099,-3.66,-3.22,-3.98
6.101,-3.31,-3.71,-4.90
6.104,-2.65,-4.25,-6.11
6.130,-1.83,-4.86,-7.26
6.132,-0.96,-5.08,-7.73
6.133,-0.19,-4.88,-7.21
6.134,0.44,-4.39,-5.82
6.134,0.80,-3.79,-3.98
6.135,0.99,-3.06,-2.17
6.139,0.99,-2.43,-0.58
6.144,0.99,-1.99,0.67
6.149,0.90,-1.60,1.52
6.154,0.99,-1.35,2.04
6.159,1.16,-1.22,2.23
6.164,1.39,-1.15,2.42
6.169,1.61,-1.19,2.73
6.174,1.69,-1.28,3.05
6.181,1.80,-1.38,3.27
6.185,1.87,-1.55,3.46
6.190,1.97,-1.70,3.61
6.241,2.10,-1.89,3.75
6.243,2.27,-1.97,3.92
6.244,2.47,-2.09,3.96
6.246,2.61,-2.22,4.17
6.248,2.65,-2.28,4.65
6.249,2.62,-2.21,5.20
6.250,2.60,-2.07,5.62
6.256,2.57,-1.74,5.95
6.257,2.84,-1.46,6.03
6.260,2.96,-1.10,5.70
6.262,3.32,-0.88,5.30
6.264,3.74,-0.56,4.95
6.267,4.04,-0.40,4.38
6.268,4.15,-0.06,3.72
6.270,3.94,0.09,1.02
6.271,2.66,-0.08,-8.34
6.275,1.75,-0.50,-11.09
6.287,1.34,-0.62,-10.26
6.288,1.22,-0.90,-8.09
6.290,1.06,-1.06,-5.44
6.327,1.08,-1.23,-3.13
6.329,0.65,-1.34,-1.21
6.331,0.09,-1.46,0.95
6.332,-0.39,-1.28,3.03
6.333,-1.01,-0.95,4.95
6.334,-1.96,-0.43,6.37
6.336,-2.37,0.07,7.09
6.337,-2.61,0.48,7.12
6.341,-2.46,0.66,6.30
6.343,-2.15,0.79,5.21
6.345,-1.47,0.61,4.06
6.350,-0.60,0.49,3.17
6.355,0.08,0.18,2.47
6.361,0.92,0.22,1.99
6.366,1.62,0.24,1.96
6.371,2.26,0.22,1.86
6.376,2.61,0.24,1.99
6.381,2.74,0.24,2.10
6.386,2.85,0.26,2.34
6.391,2.89,0.34,2.43
6.400,2.82,0.46,2.51
6.402,2.72,0.51,2.50
6.406,2.59,0.59,2.37
6.444,2.39,0.51,2.37
6.445,2.12,0.67,2.61
6.446,1.96,0.67,2.50
6.447,1.68,0.79,2.64
6.449,1.39,0.88,2.56
6.450,1.16,0.95,2.63
6.451,0.95,1.02,2.58
6.452,0.96,1.12,2.54
6.453,0.98,1.19,2.26
6.456,0.83,1.26,2.09
6.461,0.81,1.36,1.97
6.466,1.03,1.41,1.76
6.467,1.13,1.56,1.69
6.471,1.12,1.53,1.52
6.476,1.17,1.67,1.37
6.482,1.01,1.73,1.25
6.486,1.04,1.68,1.09
6.492,0.95,1.78,1.14
6.503,0.81,1.83,1.12
6.507,0.50,1.82,0.94
6.509,0.50,1.94,0.81
6.557,0.52,1.95,0.74
6.559,0.55,2.01,0.89
6.562,0.58,2.03,0.99
6.563,0.29,2.14,1.09
6.564,0.15,2.22,0.98
6.565,-0.19,2.23,0.90
6.567,-0.31,2.21,0.94
6.568,-0.23,2.16,0.94
6.569,-0.23,2.03,1.14
6.570,-0.19,1.94,1.02
6.571,-0.11,1.79,1.04
6.572,0.06,1.63,0.98
6.574,0.09,1.57,0.74
6.577,0.01,1.34,0.41
6.587,0.03,1.15,0.09
6.589,0.05,0.89,-0.48
6.592,-0.03,0.65,-1.23
6.627,-0.17,0.38,-1.89
6.628,0.08,0.17,-2.58
6.629,-0.09,-0.21,-3.39
6.630,-0.14,-0.57,-4.18
6.630,0.02,-0.85,-4.77
6.631,-0.18,-1.22,-5.23
6.632,-0.50,-1.53,-5.31
6.633,-0.91,-1.78,-5.09
6.637,-1.29,-1.98,-4.56
6.642,-1.78,-2.06,-3.79
6.647,-2.03,-2.11,-2.90
6.653,-2.25,-2.04,-2.45
6.657,-2.55,-1.88,-2.17
6.662,-2.81,-1.72,-2.16
6.668,-2.87,-1.59,-2.40
6.673,-2.66,-1.29,-2.70
6.677,-2.17,-1.10,-2.83
6.693,-1.70,-0.94,-2.63
6.695,-1.24,-0.70,-2.29
6.699,-0.95,-0.47,-1.83
6.701,-0.83,-0.11,-1.35
6.729,-0.77,0.23,-0.85
6.731,-0.71,0.63,-0.39
6.734,-0.76,1.05,-0.13
6.735,-0.86,1.51,-0.04
6.736,-0.86,1.97,0.02
6.741,-1.00,2.29,0.02
6.742,-1.22,2.59,0.04
6.743,-1.35,2.81,0.32
6.744,-1.31,2.76,1.14
6.748,-1.07,2.60,2.33
6.753,-0.65,2.18,3.51
6.758,-0.07,1.46,4.25
6.763,0.77,0.69,4.29
6.768,1.95,-0.18,3.63
6.772,3.18,-1.20,1.96
6.777,4.24,-2.48,-1.01
6.784,4.78,-4.12,-5.01
6.788,4.67,-5.85,-8.62
6.793,4.04,-7.47,-10.05
6.799,3.29,-8.72,-8.51
6.803,2.68,-9.66,-5.04
6.808,2.33,-10.53,-1.27
6.813,2.24,-11.11,1.89
6.818,2.29,-11.08,4.49
6.823,2.19,-10.43,6.35
6.828,1.80,-8.98,7.18
6.833,1.46,-6.47,7.43
6.838,1.46,-3.50,7.12
6.843,1.88,-0.68,6.42
6.848,2.42,1.64,5.57
6.854,2.98,3.40,4.44
6.858,3.51,4.73,3.40
6.863,3.94,5.63,2.72
6.869,4.25,6.17,2.40
6.874,4.26,6.30,2.63
6.879,4.08,6.08,3.42
6.888,3.98,5.54,4.42
6.890,3.95,4.58,5.50
6.894,3.86,3.31,6.59
6.940,3.59,2.07,7.30
6.942,3.22,0.88,7.75
6.943,2.87,-0.34,7.93
6.945,2.50,-1.66,7.75
6.946,2.10,-3.05,7.26
6.948,1.65,-4.15,6.38
6.949,1.13,-4.97,4.93
6.950,0.39,-5.49,3.07
6.951,-0.53,-5.75,1.19
6.953,-1.32,-5.68,-0.47
6.954,-1.74,-5.46,-1.42
6.955,-1.91,-5.10,-1.69
6.959,-1.83,-4.46,-1.42
6.964,-1.46,-3.78,-0.63
6.970,-1.08,-3.06,0.32
6.975,-0.66,-2.29,1.30
6.980,-0.25,-1.72,1.97
6.991,-0.09,-1.26,2.32
6.995,0.09,-0.68,2.47
6.996,0.17,-0.10,2.43
7.042,0.14,0.26,2.42
7.044,0.26,0.69,2.32
7.045,0.31,1.07,2.18
7.045,0.26,1.30,1.94
7.046,0.24,1.58,1.62
7.047,0.26,1.82,1.22
7.048,0.29,1.95,0.90
7.049,0.37,1.90,0.59
7.050,0.40,1.86,0.33
7.051,0.52,1.66,0.17
7.051,0.59,1.52,0.03
7.055,0.69,1.28,-0.15
7.060,0.66,0.87,-0.11
7.065,0.62,0.53,-0.08
7.070,0.52,0.34,-0.00
7.075,0.46,0.17,0.07
7.080,0.15,0.06,0.14
7.089,-0.07,-0.07,0.15
7.091,-0.30,-0.13,0.07
7.096,-0.42,-0.07,-0.03
7.143,-0.64,-0.09,-0.20
7.145,-0.77,-0.05,-0.17
7.146,-0.91,0.06,-0.40
7.147,-1.06,0.01,-0.36
7.148,-1.02,0.10,-0.43
7.151,-1.06,0.09,-0.51
7.152,-1.03,-0.05,-0.47
7.152,-1.02,-0.03,-0.51
7.153,-0.99,0.03,-0.50
7.156,-1.02,-0.04,-0.49
7.157,-1.02,0.10,-0.56
7.157,-1.01,0.07,-0.60
7.160,-0.95,0.15,-0.50
7.165,-0.95,0.14,-0.48
7.172,-0.92,0.17,-0.60
7.175,-0.84,0.26,-0.57
7.180,-0.96,0.22,-0.51
7.202,-0.83,0.29,-0.49
7.204,-0.74,0.28,-0.54
7.205,-0.65,0.35,-0.57
7.205,-0.70,0.38,-0.66
7.206,-0.69,0.33,-0.62
7.210,-0.52,0.37,-0.74
7.215,-0.22,0.35,-0.79
7.220,-0.10,0.41,-0.89
7.225,-0.03,0.30,-1.06
7.230,0.15,0.30,-1.02
7.235,0.25,0.31,-0.58
7.240,-0.23,1.75,11.43
7.245,-0.93,1.74,8.46
7.250,-0.02,0.96,2.11
7.256,1.31,0.48,0.33
7.261,2.15,0.27,-1.67
7.266,2.60,-0.06,-5.08
7.271,2.80,-0.26,-7.34
7.272,2.45,-0.34,-7.67
7.277,1.64,-0.29,-6.89
7.281,1.01,-0.45,-5.81
7.293,0.47,-0.49,-4.29
7.294,0.06,-0.59,-2.76
7.296,-0.34,-0.75,-1.35
7.326,-0.47,-0.84,-0.60
7.327,-0.47,-1.05,-0.40
7.328,-0.56,-0.89,-0.47
7.328,-0.96,-0.76,-0.60
7.328,-1.41,-0.52,-0.89
7.329,-1.81,-0.33,-1.34
7.331,-2.08,-0.09,-1.48
7.336,-2.21,-0.00,-1.41
7.341,-2.35,-0.11,-1.21
7.346,-2.37,-0.27,-1.00
7.351,-2.32,-0.42,-0.62
7.356,-2.37,-0.38,-0.38
7.361,-2.37,-0.47,-0.38
7.367,-2.24,-0.49,-0.50
7.372,-2.15,-0.61,-0.72
7.378,-1.90,-0.82,-0.98
7.383,-1.72,-0.77,-1.05
7.395,-1.59,-0.81,-1.19
7.398,-1.51,-0.93,-1.28
7.400,-1.20,-1.05,-1.44
7.404,-0.81,-0.96,-1.54
7.436,-0.48,-0.86,-1.54
7.438,-0.27,-0.86,-1.47
7.441,-0.14,-0.88,-1.45
7.443,0.23,-0.96,-1.46
7.444,0.61,-0.95,-1.77
7.445,0.84,-1.02,-2.16
7.447,0.80,-1.31,-2.30
7.449,0.40,-1.64,-2.28
7.451,-0.16,-1.98,-2.14
7.453,-0.78,-2.20,-2.22
7.457,-1.36,-2.35,-2.33
7.462,-2.00,-2.45,-2.45
7.467,-2.65,-2.58,-2.50
7.473,-3.12,-2.72,-2.67
7.478,-3.52,-2.75,-2.82
7.483,-3.81,-2.66,-2.79
7.492,-3.94,-2.60,-2.85
7.494,-4.29,-2.57,-2.98
7.498,-4.61,-2.45,-3.17
7.503,-4.75,-2.48,-3.43
7.530,-4.75,-2.69,-3.75
7.531,-4.64,-2.95,-3.91
7.533,-4.42,-3.20,-3.78
7.533,-4.09,-3.42,-3.57
7.534,-3.75,-3.61,-3.58
7.535,-3.28,-3.76,-3.74
7.537,-2.69,-3.76,-4.14
7.542,-2.07,-3.73,-4.62
7.547,-1.50,-3.76,-5.03
7.552,-1.03,-3.58,-5.25
7.558,-0.73,-3.43,-5.34
7.563,-0.60,-3.36,-5.18
7.568,-0.49,-3.26,-4.95
7.573,-0.39,-3.08,-4.58
7.578,-0.22,-2.93,-3.90
7.584,-0.05,-2.92,-3.12
7.600,0.13,-2.82,-2.30
7.603,0.35,-2.75,-1.50
7.604,0.60,-2.90,-0.79
7.605,0.89,-3.02,-0.08
7.634,1.15,-3.08,0.70
7.636,1.35,-3.18,1.60
7.637,1.48,-3.27,2.36
7.638,1.58,-3.34,2.85
7.639,1.77,-3.38,3.20
7.640,2.00,-3.40,3.35
7.641,2.17,-3.34,3.37
7.644,2.36,-3.17,3.24
7.649,2.54,-2.85,2.98
7.654,2.60,-2.53,2.61
7.658,2.58,-2.32,2.11
7.663,2.43,-2.11,1.83
7.669,2.16,-1.89,1.66
7.674,1.76,-1.65,1.43
7.679,1.33,-1.33,1.35
7.684,0.90,-1.09,1.37
7.693,0.50,-1.03,1.40
7.695,0.15,-1.00,1.47
7.699,0.10,-1.02,1.58
7.704,0.36,-1.04,1.68
7.759,0.60,-1.19,1.72
7.761,0.79,-1.30,1.64
7.763,1.01,-1.27,1.44
7.764,1.24,-1.18,1.25
7.772,1.37,-1.06,1.20
7.776,1.33,-0.84,1.25
7.778,1.26,-0.57,1.31
7.780,1.23,-0.31,1.38
7.782,1.28,-0.17,1.47
7.783,1.24,-0.07,1.61
7.785,1.32,0.09,1.71
7.785,1.42,0.17,1.72
7.787,1.54,0.23,1.83
7.788,1.67,0.15,1.95
7.789,1.78,0.12,2.06
7.790,1.99,0.10,2.20
7.791,2.14,0.07,2.29
7.795,2.19,0.15,2.39
7.801,2.22,0.16,2.42
7.805,2.10,0.16,2.52
7.810,2.00,0.22,2.60
7.814,1.94,0.38,2.63
7.820,1.96,0.48,2.73
7.827,2.02,0.63,2.98
7.829,2.15,0.84,3.07
7.834,2.34,1.02,3.23
7.875,2.67,1.24,3.54
7.876,2.89,1.42,3.56
7.878,3.08,1.56,3.48
7.880,3.37,1.69,3.54
7.881,3.53,1.75,3.47
7.881,3.68,1.83,3.36
7.883,3.92,1.88,3.26
7.884,4.12,1.94,3.15
7.885,4.16,2.00,3.13
7.886,4.17,2.19,3.15
7.890,4.11,2.29,3.07
7.895,3.94,2.32,2.94
7.900,3.86,2.49,2.82
7.905,3.65,2.59,2.47
7.916,3.28,2.60,2.30
7.919,3.03,2.58,2.15
7.921,3.03,2.52,1.90
7.973,2.73,2.46,1.62
7.975,2.20,2.40,1.52
7.976,1.89,2.36,1.44
7.977,1.95,2.21,1.29
7.979,1.92,2.25,0.93
7.980,2.00,2.36,0.90
7.981,1.55,2.28,0.89
7.982,1.34,2.24,0.80
7.983,1.21,2.10,0.66
7.985,0.84,1.98,0.46
7.986,0.66,1.79,0.22
7.987,0.51,1.47,-0.14
7.988,0.33,1.39,-0.47
7.991,-0.09,1.14,-0.77
7.996,-0.36,1.04,-1.26
8.001,-0.54,0.78,-1.61
8.006,-0.73,0.59,-1.87
8.015,-0.66,0.43,-2.28
8.017,-0.81,0.19,-2.51
8.021,-0.86,0.10,-2.66
8.056,-0.87,-0.10,-2.73
8.058,-0.87,-0.19,-2.54
8.058,-1.01,-0.42,-2.56
8.061,-1.32,-0.67,-2.55
8.062,-1.44,-0.73,-2.74
8.063,-1.52,-0.86,-3.14
8.064,-1.61,-1.00,-3.35
8.064,-1.71,-1.31,-3.87
8.066,-2.01,-1.39,-4.46
8.071,-2.51,-1.58,-4.73
8.076,-2.88,-1.74,-4.92
8.081,-3.37,-1.94,-4.79
8.086,-3.77,-2.13,-4.61
8.087,-3.93,-2.32,-4.19
8.097,-4.06,-2.48,-3.64
8.100,-3.97,-2.66,-3.14
8.101,-3.86,-2.51,-2.53
8.106,-3.48,-2.37,-1.95
8.144,-3.17,-2.33,-1.78
8.146,-2.87,-2.03,-1.66
8.147,-2.47,-1.78,-1.26
8.147,-1.88,-1.45,-0.94
8.148,-1.50,-1.00,-0.76
8.148,-1.01,-0.48,-0.25
8.149,-0.60,-0.07,0.14
8.150,-0.08,0.44,0.36
8.151,0.33,0.97,0.39
8.156,0.69,1.47,0.18
8.163,1.08,1.79,0.10
8.166,1.53,2.06,0.43
8.171,2.09,2.09,0.93
8.176,2.58,1.94,1.33
8.181,3.25,1.50,1.75
8.186,3.75,0.88,2.10
8.198,4.25,0.20,2.38
8.200,4.96,-0.65,2.54
8.202,5.58,-1.49,2.14
8.207,6.01,-2.24,0.95
8.291,6.04,-3.08,-0.86
8.294,5.71,-3.73,-2.61
8.296,5.03,-4.29,-3.44
8.302,3.75,-4.97,-3.25
8.303,1.88,-5.38,-1.97
8.304,-0.07,-5.75,-1.07
8.305,-1.28,-5.54,-0.25
8.309,-1.48,-5.29,0.77
8.311,-1.03,-5.01,1.42
8.315,-0.15,-4.77,2.22
8.317,1.35,-4.72,2.88
8.319,3.19,-4.81,2.84
8.320,4.87,-4.53,3.15
8.321,6.13,-2.94,3.13
8.322,6.66,-0.44,2.75
8.322,6.47,1.45,2.52
8.323,5.90,3.04,2.68
8.324,4.97,4.13,3.05
8.324,3.87,4.66,3.36
8.325,2.63,4.60,3.86
8.325,1.48,4.13,4.31
8.326,0.60,3.17,4.50
8.326,0.17,1.94,4.35
8.328,0.18,0.47,4.03
8.333,0.48,-1.12,3.67
8.337,0.77,-2.59,3.22
8.356,0.92,-3.65,2.98
8.358,0.92,-4.23,2.77
8.359,0.70,-4.36,2.67
8.360,0.31,-4.10,2.58
8.393,-0.08,-3.51,2.53
8.394,-0.39,-2.73,2.54
8.396,-0.61,-1.91,2.38
8.398,-0.80,-1.10,2.16
8.399,-0.78,-0.39,2.06
8.400,-0.60,0.21,1.90
8.401,-0.49,0.63,1.74
8.402,-0.30,0.88,1.48
8.403,-0.13,1.08,1.38
8.409,0.03,1.19,1.31
8.413,0.25,1.18,1.19
8.419,0.47,1.22,1.15
8.423,0.63,1.18,1.06
8.437,0.75,1.12,0.97
8.438,0.90,1.06,0.88
8.439,1.05,0.88,0.67
8.466,1.13,0.61,0.50
8.469,1.19,0.37,0.44
8.470,1.19,0.19,0.30
8.471,1.19,-0.01,0.12
8.473,1.16,-0.17,-0.06
8.474,1.00,-0.21,-0.19
8.475,0.79,-0.24,-0.21
8.478,0.54,-0.27,-0.20
8.483,0.37,-0.18,-0.16
8.488,0.21,-0.12,-0.22
8.496,0.00,-0.07,-0.23
8.498,-0.09,0.00,-0.17
8.503,-0.10,0.14,-0.20
8.508,-0.13,0.30,-0.26
8.537,-0.13,0.36,-0.30
8.539,-0.19,0.36,-0.23
8.540,-0.32,0.40,-0.16
8.541,-0.37,0.43,-0.21
8.542,-0.31,0.40,-0.29
8.543,-0.38,0.30,-0.23
8.544,-0.38,0.25,-0.19
8.549,-0.38,0.25,-0.13
8.554,-0.36,0.22,-0.07
8.559,-0.34,0.17,-0.12
8.564,-0.32,0.17,-0.22
8.569,-0.43,0.20,-0.32
8.574,-0.57,0.18,-0.47
8.584,-0.65,0.22,-0.55
8.586,-0.88,0.23,-0.50
8.589,-1.06,0.21,-0.49
8.636,-1.11,0.26,-0.60
8.640,-1.12,0.28,-0.67
8.641,-1.10,0.35,-0.65
8.643,-0.93,0.47,-0.70
8.645,-0.88,0.35,-0.74
8.647,-0.83,0.22,-0.79
8.649,-0.79,0.25,-0.84
8.651,-0.77,0.32,-0.92
8.652,-0.82,0.24,-1.06
8.654,-0.81,0.20,-1.15
8.655,-0.83,0.10,-1.21
8.657,-0.87,0.03,-1.23
8.658,-0.62,0.21,-1.40
8.661,-0.27,0.30,-1.47
8.665,-0.17,0.26,-1.58
8.670,-0.14,0.17,-1.50
8.675,0.25,0.24,-1.62
8.680,0.24,0.24,-1.82
8.685,0.17,0.12,-1.92
8.690,0.22,0.01,-2.17
8.695,0.43,0.17,-2.37
8.701,0.52,0.10,-2.33
8.705,0.43,-0.09,-2.28
8.710,0.33,-0.24,-2.15
8.743,0.72,-0.42,-2.48
8.746,0.58,-0.60,-2.67
8.747,0.24,-0.71,-2.77
8.754,-0.63,-0.70,-2.84
8.755,-1.13,-0.74,-2.54
8.756,-1.72,-0.72,-2.50
8.758,-2.21,-0.74,-2.50
8.759,-2.36,-0.53,-2.47
8.760,-2.53,-0.36,-2.47
8.761,-2.37,-0.28,-2.35
8.765,-2.32,-0.24,-2.00
8.770,-2.31,-0.27,-1.59
8.775,-2.20,-0.24,-1.30
8.784,-2.33,-0.43,-1.10
8.785,-2.44,-0.59,-0.93
8.795,-2.57,-0.95,-0.80
8.796,-2.55,-0.99,-0.50
8.825,-2.63,-1.18,-0.29
8.827,-2.62,-1.29,-0.11
8.827,-2.49,-1.37,-0.08
8.828,-2.08,-1.25,-0.25
8.829,-1.74,-1.38,-0.50
8.830,-1.19,-1.42,-0.83
8.831,-0.91,-1.40,-1.19
8.836,-0.72,-1.56,-1.47
8.840,-0.60,-1.69,-1.41
8.850,-0.38,-1.90,-2.10
8.853,-0.49,-2.22,-2.34
8.856,-0.57,-2.41,-2.36
8.861,-0.82,-2.69,-2.34
8.866,-1.06,-3.04,-2.44
8.871,-1.29,-3.41,-2.52
8.879,-1.83,-4.12,-2.55
8.894,-2.30,-4.33,-2.67
8.896,-2.54,-4.29,-2.71
8.897,-2.93,-4.17,-3.12
8.898,-3.17,-4.01,-3.66
8.926,-3.25,-3.85,-3.83
8.927,-3.48,-3.80,-3.89
8.928,-3.81,-3.66,-3.78
8.930,-4.10,-3.38,-3.32
8.931,-4.43,-3.09,-2.61
8.931,-4.56,-2.99,-2.41
8.932,-4.31,-3.01,-2.41
8.932,-3.94,-3.08,-2.83
8.938,-3.18,-3.15,-3.26
8.941,-2.49,-3.27,-3.64
8.946,-1.85,-3.27,-3.92
8.951,-1.28,-3.18,-3.97
8.956,-0.90,-3.16,-4.00
8.961,-0.50,-2.97,-4.01
8.969,-0.34,-2.86,-3.98
8.971,-0.18,-2.62,-3.70
8.977,0.07,-2.36,-3.13
8.993,0.31,-2.33,-2.38
8.994,0.57,-2.42,-1.32
8.995,0.85,-2.27,-0.20
9.000,0.96,-2.37,0.97
9.020,1.24,-2.68,2.15
9.023,1.49,-2.94,3.06
9.024,1.79,-3.14,3.82
9.025,2.13,-3.23,4.24
9.025,2.45,-3.27,4.48
9.030,2.73,-3.22,4.47
9.032,2.98,-2.91,4.12
9.037,3.19,-2.65,3.57
9.042,3.26,-2.51,2.88
9.047,3.38,-2.21,2.14
9.053,3.40,-2.01,1.64
9.060,3.26,-1.73,1.53
9.062,3.20,-1.46,1.57
9.067,3.00,-1.19,1.80
9.073,2.70,-0.89,2.19
9.078,2.23,-0.62,2.49
9.100,1.68,-0.42,2.61
9.103,1.16,-0.32,2.80
9.107,0.91,-0.46,2.67
9.108,0.73,-0.77,2.62
9.110,0.74,-1.05,2.38
9.110,0.76,-1.28,2.15
9.112,0.75,-1.40,1.90
9.139,0.75,-1.44,1.71
9.140,0.85,-1.33,1.56
9.141,0.71,-1.14,1.45
9.142,0.53,-0.83,1.50
9.142,0.43,-0.50,1.59
9.143,0.32,-0.28,1.62
9.151,0.23,-0.09,1.79
9.154,0.19,0.02,2.00
9.157,0.25,-0.01,2.12
9.162,0.35,0.06,2.27
9.168,0.46,0.18,2.43
9.173,0.63,0.08,2.49
9.188,0.75,-0.01,2.54
9.189,0.86,-0.12,2.55
9.191,1.06,-0.17,2.59
9.193,1.27,-0.16,2.71
9.198,1.41,-0.13,2.77
9.238,1.64,-0.04,2.78
9.240,1.95,0.05,2.86
9.241,2.27,0.13,2.93
9.242,2.57,0.25,2.96
9.242,2.88,0.42,3.07
9.249,3.24,0.60,3.22
9.250,3.50,0.82,3.34
9.252,3.67,1.04,3.31
9.253,3.82,1.27,3.22
9.255,3.97,1.54,3.15
9.256,4.08,1.72,3.03
9.258,4.09,1.83,2.90
9.263,4.06,2.04,2.82
9.268,4.05,2.24,2.81
9.273,4.09,2.34,2.72
9.278,4.10,2.46,2.57
9.288,4.01,2.57,2.39
9.289,3.87,2.71,2.30
9.293,3.75,2.79,2.33
9.298,3.64,2.77,2.27
9.322,3.50,2.79,2.27
9.323,3.36,2.80,2.31
9.324,3.16,2.77,2.26
9.324,2.93,2.77,2.22
9.325,2.75,2.72,2.07
9.328,2.52,2.63,1.84
9.333,2.29,2.52,1.73
9.339,2.08,2.43,1.54
9.343,1.81,2.43,1.30
9.349,1.61,2.32,1.13
9.353,1.41,2.27,0.92
9.359,1.17,2.24,0.45
9.364,0.89,2.21,-0.15
9.368,0.62,2.18,-0.65
9.374,0.41,2.07,-1.18
9.379,0.18,1.97,-1.67
9.387,0.03,1.82,-1.92
9.389,-0.16,1.55,-1.94
9.394,-0.51,1.33,-1.79
9.399,-0.71,1.08,-1.60
9.443,-0.70,0.79,-1.55
9.446,-0.91,0.42,-1.63
9.447,-1.38,0.19,-1.96
9.448,-1.77,0.03,-2.39
9.449,-2.17,-0.22,-2.86
9.450,-2.63,-0.35,-3.38
9.451,-2.98,-0.51,-3.88
9.452,-3.25,-0.62,-4.34
9.453,-3.53,-0.82,-4.81
9.457,-3.70,-1.17,-5.20
9.458,-3.93,-1.48,-5.49
9.460,-4.26,-1.83,-5.55
9.465,-4.71,-2.24,-5.24
9.470,-4.99,-2.80,-4.60
9.475,-5.14,-3.23,-3.97
9.480,-5.22,-3.61,-3.49
9.493,-4.91,-3.86,-3.14
9.495,-4.45,-4.01,-2.85
9.496,-4.02,-3.91,-2.74
9.500,-3.32,-3.64,-2.30
9.543,-2.61,-3.11,-1.84
9.546,-1.98,-2.32,-1.26
9.547,-1.51,-1.43,-0.69
9.548,-1.06,-0.62,-0.49
9.549,-0.60,0.15,-0.25
9.550,-0.19,0.76,-0.25
9.551,0.18,1.32,-0.28
9.552,0.64,1.64,0.03
9.554,1.15,1.62,0.46
9.555,1.78,1.51,0.86
9.556,2.51,1.02,1.17
9.560,3.26,0.37,1.30
9.566,3.99,-0.37,1.40
9.572,4.76,-1.21,1.64
9.576,5.20,-1.87,1.40
9.581,5.12,-2.42,0.88
9.587,4.81,-2.87,-0.25
9.591,4.18,-3.44,-1.44
9.596,3.62,-4.18,-2.24
9.601,3.15,-5.05,-2.21
9.611,2.39,-6.08,-1.35
9.614,1.64,-6.64,-0.76
9.616,0.70,-6.75,-0.29
9.661,-0.65,-6.92,0.30
9.663,-1.35,-6.23,1.47
9.664,-1.37,-5.54,3.04
9.666,-0.44,-4.62,4.02
9.667,1.18,-3.59,4.29
9.669,3.03,-2.21,3.86
9.670,4.55,-0.14,2.94
9.671,5.69,1.29,2.65
9.673,6.47,2.52,2.78
9.674,6.82,3.21,3.63
9.675,6.54,3.64,4.27
9.677,5.89,4.10,4.85
9.681,5.11,4.15,5.15
9.686,4.32,4.08,5.10
9.692,3.51,3.58,4.64
9.696,2.51,2.84,4.31
9.701,2.15,1.78,4.06
9.735,1.83,0.38,3.89
9.737,1.74,-0.95,3.98
9.738,1.51,-2.45,3.66
9.739,1.28,-3.57,3.53
9.742,0.95,-4.14,3.16
9.747,0.74,-4.06,3.01
9.748,0.38,-3.64,2.67
9.750,-0.09,-2.89,2.33
9.751,-0.64,-2.15,2.10
9.752,-1.01,-1.33,1.78
9.753,-1.26,-0.48,1.71
9.756,-1.31,0.12,1.60
9.761,-1.18,0.50,1.72
9.766,-1.04,0.88,1.69
9.771,-0.79,0.97,1.49
9.777,-0.57,1.09,1.29
9.782,-0.23,1.18,1.19
9.786,0.02,1.12,0.91
9.792,0.30,0.96,0.82
9.796,0.50,0.88,0.76
9.801,0.68,0.82,0.67
9.849,0.63,0.53,0.58
9.852,0.59,0.34,0.43
9.854,0.49,0.15,0.27
9.855,0.40,-0.06,0.13
9.856,0.36,-0.18,0.04
9.860,0.28,-0.20,-0.21
9.861,0.20,-0.27,-0.32
9.862,0.10,-0.14,-0.33
9.863,0.05,-0.07,-0.47
9.864,-0.01,0.03,-0.45
9.865,-0.07,0.13,-0.51
9.867,-0.11,0.21,-0.30
9.868,-0.09,0.30,-0.18
9.872,-0.19,0.38,-0.15
9.877,-0.27,0.42,-0.00
9.882,-0.33,0.32,0.09
9.887,-0.41,0.36,0.18
9.895,-0.40,0.43,0.22
9.898,-0.32,0.37,0.26
9.902,-0.30,0.32,0.30
9.967,-0.30,0.37,0.17
9.969,-0.28,0.31,0.03
9.971,-0.23,0.32,-0.00
9.972,-0.25,0.33,-0.06
9.974,-0.22,0.40,-0.18
9.975,-0.11,0.40,-0.33
9.977,-0.08,0.36,-0.39
9.978,-0.04,0.33,-0.47
9.979,-0.20,0.24,-0.40
9.980,-0.32,0.24,-0.29
9.982,-0.53,0.29,-0.25
9.983,-0.68,0.29,-0.19
9.984,-0.70,0.23,-0.12
9.985,-0.75,0.22,-0.11
9.986,-0.70,0.23,-0.13
9.987,-0.60,0.23,-0.13
9.988,-0.46,0.23,-0.19
9.993,-0.32,0.20,-0.33
9.998,-0.19,0.15,-0.61
10.003,-0.03,0.17,-0.83
10.013,0.09,0.21,-1.01
10.014,0.17,0.22,-1.22
10.018,0.16,0.19,-1.31
10.073,0.14,0.14,-1.36
10.075,0.37,0.13,-1.46
10.078,0.52,0.17,-1.60
10.079,0.55,0.18,-1.82
10.080,0.73,0.03,-2.01
10.080,0.94,-0.10,-2.13
10.081,0.98,-0.19,-2.22
10.082,0.94,-0.23,-2.18
10.083,0.90,-0.26,-2.18
10.083,0.78,-0.44,-2.18
10.084,0.57,-0.61,-2.12
10.085,0.31,-0.63,-2.05
10.086,0.07,-0.61,-1.97
10.088,-0.20,-0.64,-1.99
10.094,-0.63,-0.56,-1.94
10.098,-1.10,-0.47,-1.78
10.103,-1.54,-0.42,-1.65
10.122,-1.95,-0.32,-1.64
10.125,-2.25,-0.30,-1.67
10.126,-2.50,-0.33,-1.69
10.127,-2.76,-0.39,-1.75
10.129,-2.99,-0.46,-1.75
10.135,-3.15,-0.57,-1.60
10.139,-3.09,-0.72,-1.40
10.161,-3.00,-0.85,-1.29
10.162,-2.87,-0.94,-1.34
10.163,-2.69,-1.03,-1.38
10.163,-2.52,-1.12,-1.33
10.164,-2.39,-1.10,-1.29
10.168,-2.28,-1.24,-1.32
10.174,-2.17,-1.39,-1.29
10.179,-2.07,-1.46,-1.33
10.183,-1.90,-1.59,-1.47
10.188,-1.65,-1.59,-1.85
10.194,-1.37,-1.72,-2.15
10.199,-1.13,-1.92,-2.49
10.204,-0.93,-2.04,-2.73
10.213,-0.85,-2.21,-2.74
10.214,-1.02,-2.45,-2.85
10.219,-1.23,-2.63,-2.94
10.246,-1.39,-2.71,-3.08
10.257,-1.69,-2.99,-3.38
10.258,-2.14,-3.34,-3.59
10.259,-2.67,-3.69,-3.76
10.260,-3.12,-3.85,-4.02
10.262,-3.32,-3.82,-4.34
10.264,-3.45,-3.73,-4.65
10.265,-3.53,-3.57,-4.74
10.266,-3.72,-3.39,-4.60
10.269,-3.99,-3.41,-4.06
10.279,-4.13,-3.52,-3.37
10.281,-4.03,-3.60,-2.98
10.285,-3.75,-3.63,-3.05
10.290,-3.31,-3.66,-3.42
10.323,-2.75,-3.66,-3.96
10.325,-2.06,-3.63,-4.22
10.327,-1.54,-3.46,-4.59
10.327,-1.06,-3.24,-4.81
10.329,-0.56,-3.00,-4.86
10.330,-0.41,-2.81,-4.49
10.331,-0.31,-2.60,-3.81
10.332,-0.40,-2.74,-2.78
10.335,-0.39,-2.78,-1.64
10.340,-0.42,-3.01,-0.48
10.345,-0.30,-3.33,0.72
10.350,-0.15,-3.68,1.91
10.355,0.04,-4.04,3.03
10.360,0.18,-4.46,4.06
10.365,0.27,-4.67,4.89
10.370,0.52,-4.68,5.41
10.377,0.78,-4.27,5.72
10.381,0.96,-4.05,5.31
10.386,1.16,-3.92,4.57
10.391,1.47,-3.60,3.83
10.396,1.92,-2.92,3.11
10.402,2.25,-2.74,2.15
10.406,2.40,-2.70,1.15
10.418,2.52,-2.69,0.82
10.421,2.52,-2.75,1.13
10.422,2.34,-2.66,1.68
10.465,2.21,-2.24,2.44
10.468,1.79,-1.70,2.87
10.469,1.47,-1.38,2.79
10.471,1.27,-1.17,2.87
10.472,1.31,-0.97,2.79
10.473,1.42,-0.76,2.62
10.474,1.49,-0.73,2.56
10.475,1.57,-0.75,2.25
10.477,1.82,-0.68,2.14
10.477,1.76,-0.76,2.06
10.481,1.57,-0.55,1.93
10.482,1.47,-0.30,1.79
10.486,1.22,-0.14,1.80
10.491,0.89,0.04,1.90
10.498,0.59,0.21,2.02
10.501,0.27,0.45,2.10
10.506,0.20,0.43,2.27
10.536,0.08,0.66,2.40
10.538,0.03,0.75,2.52
10.539,0.16,0.76,2.61
10.540,0.36,0.83,2.81
10.541,0.50,0.72,2.91
10.542,0.86,0.47,2.99
10.543,1.02,0.42,3.18
10.543,1.25,0.40,3.18
10.546,1.42,0.43,3.31
10.551,1.56,0.41,3.35
10.556,1.79,0.59,3.49
10.561,1.93,0.71,3.68
10.566,2.23,0.86,3.73
10.571,2.41,0.99,3.97
10.576,2.52,1.16,3.86
10.582,2.86,1.27,4.02
10.587,3.09,1.45,4.03
10.593,3.23,1.65,4.05
10.602,3.44,1.79,3.98
10.605,3.54,2.01,3.90
10.607,3.59,2.14,3.90
10.676,3.69,2.25,3.91
10.678,3.68,2.33,3.77
10.680,3.71,2.46,3.55
10.681,3.68,2.53,3.46
10.683,3.66,2.61,3.31
10.684,3.45,2.73,3.19
10.685,3.23,2.72,3.04
10.686,2.99,2.59,2.85
10.688,2.94,2.53,2.69
10.689,2.81,2.30,2.50
10.690,2.50,2.17,2.21
10.691,2.12,2.08,1.89
10.692,1.87,1.92,1.60
10.692,1.56,1.74,1.30
10.693,1.29,1.61,0.97
10.694,0.90,1.44,0.65
10.695,0.57,1.31,0.39
10.697,0.28,1.28,0.11
10.702,-0.04,1.30,-0.23
10.707,-0.47,1.19,-0.65
10.715,-0.83,1.21,-1.01
10.717,-1.15,1.12,-1.13
10.722,-1.39,0.98,-1.20
10.729,-1.46,0.92,-1.06
10.758,-1.39,0.87,-0.89
10.760,-1.26,0.70,-0.69
10.760,-1.08,0.50,-0.68
10.761,-0.94,0.42,-0.85
10.762,-0.86,0.30,-1.01
10.762,-0.82,0.19,-1.24
10.763,-0.87,0.15,-1.47
10.767,-1.03,0.17,-1.64
10.772,-1.35,0.18,-1.65
10.777,-1.60,0.12,-1.62
10.782,-1.86,-0.05,-1.72
10.787,-2.07,-0.14,-1.93
10.792,-2.18,-0.25,-2.12
10.810,-2.29,-0.46,-2.25
10.811,-2.35,-0.61,-2.42
10.812,-2.40,-0.75,-2.77
10.813,-2.44,-0.94,-3.15
10.818,-2.55,-1.06,-3.41
10.823,-2.67,-1.26,-3.48
10.828,-2.75,-1.54,-3.44
10.857,-2.85,-1.72,-3.29
10.859,-2.95,-1.92,-2.92
10.860,-2.99,-2.16,-2.47
10.861,-2.87,-2.31,-2.14
10.862,-2.62,-2.43,-1.85
10.863,-2.37,-2.51,-1.50
10.864,-2.00,-2.46,-1.16
10.868,-1.47,-2.25,-0.86
10.873,-0.95,-1.86,-0.63
10.878,-0.58,-1.40,-0.48
10.883,-0.29,-0.87,-0.40
10.888,-0.04,-0.31,-0.39
10.893,0.25,0.21,-0.28
10.900,0.59,0.67,-0.09
10.903,0.80,1.06,0.16
10.908,1.01,1.43,0.58
10.985,1.20,1.82,0.91
10.986,1.35,2.14,0.99
10.987,1.54,2.37,1.07
10.988,1.63,2.47,1.24
10.989,1.65,2.60,1.48
10.989,1.71,2.70,1.74
10.990,1.69,2.73,1.76
10.991,1.56,2.68,1.70
10.991,1.43,2.40,1.77
10.992,1.42,1.71,2.17
10.993,1.68,0.57,3.12
10.993,2.21,-0.91,3.78
10.994,3.32,-2.66,3.67
10.995,4.78,-4.20,2.07
10.995,6.12,-5.27,-0.97
10.996,6.88,-5.67,-4.58
10.997,6.37,-5.69,-7.69
10.999,4.46,-5.88,-8.75
11.004,2.03,-6.13,-6.35
11.009,-1.13,-6.17,-2.41
11.018,-4.54,-6.20,-0.18
11.020,-6.99,-6.65,0.66
11.024,-7.89,-7.06,1.31
11.029,-6.48,-7.46,2.54
11.055,-4.28,-7.66,3.47
11.057,-1.69,-7.84,3.65
11.058,1.42,-8.08,3.44
11.059,4.00,-7.61,3.14
11.060,5.92,-5.64,3.24
11.061,6.29,-1.71,3.35
11.064,6.23,1.11,3.81
11.069,5.85,2.96,4.61
11.074,5.06,4.04,5.51
11.079,4.14,4.50,6.06
11.085,3.18,4.53,6.50
11.090,2.25,4.17,6.59
11.095,1.97,3.42,6.44
11.103,1.91,2.47,5.99
11.105,2.19,1.37,5.43
11.110,2.23,0.09,4.67
11.152,2.19,-0.98,4.17
11.154,2.38,-1.33,4.36
11.155,1.79,-2.61,3.46
11.156,1.34,-4.07,2.68
11.157,1.04,-5.03,2.20
11.157,0.31,-5.39,2.25
11.158,-0.41,-5.15,2.46
11.158,-1.26,-4.58,2.34
11.159,-1.90,-3.25,2.83
11.160,-2.27,-1.90,3.23
11.165,-2.17,-0.68,3.12
11.170,-1.64,0.29,2.82
11.175,-1.06,0.80,2.53
11.180,-0.27,1.17,2.35
11.185,0.44,1.25,2.20
11.190,1.01,1.26,2.11
11.195,1.57,1.17,2.08
11.212,1.91,1.05,2.37
11.213,2.25,0.99,2.43
11.214,2.61,0.86,2.30
11.215,2.62,0.76,2.07
11.273,2.73,0.68,1.79
11.276,2.77,0.62,1.62
11.281,2.77,0.38,1.37
11.283,2.63,0.07,1.15
11.284,2.44,-0.19,1.06
11.285,2.32,-0.51,0.96
11.286,1.98,-0.84,1.07
11.288,1.71,-1.01,1.06
11.289,1.52,-1.04,1.06
11.290,1.26,-1.22,1.01
11.291,0.98,-1.12,1.10
11.291,0.71,-1.05,1.06
11.292,0.42,-0.99,0.95
11.292,0.08,-0.96,1.07
11.292,-0.26,-0.84,1.09
11.299,-0.50,-0.69,1.13
11.309,-0.67,-0.57,1.17
11.310,-0.86,-0.40,1.17
11.310,-1.16,-0.26,1.02
11.316,-1.21,-0.07,0.96
11.330,-1.23,-0.01,0.78
11.331,-1.24,-0.05,0.53
11.332,-1.23,-0.05,0.34
11.336,-1.13,-0.01,0.25
11.337,-1.01,-0.08,0.25
11.341,-0.85,-0.23,0.11
11.346,-0.65,-0.36,-0.01
11.351,-0.52,-0.45,0.09
11.356,-0.42,-0.51,0.15
11.361,-0.27,-0.35,0.12
11.366,-0.19,-0.35,0.19
11.371,-0.07,-0.34,0.33
11.376,0.04,-0.29,0.43
11.381,0.14,-0.26,0.56
11.388,0.27,-0.29,0.60
11.391,0.28,-0.24,0.64
11.396,0.42,-0.27,0.73
11.434,0.52,-0.21,0.64
11.435,0.70,-0.20,0.65
11.435,0.88,-0.21,0.72
11.436,0.98,-0.12,0.70
11.437,1.07,-0.18,0.76
11.438,1.00,-0.15,0.72
11.439,1.00,-0.12,0.69
11.439,0.93,-0.15,0.81
11.441,0.81,-0.17,0.82
11.446,0.66,-0.35,0.91
11.451,0.55,-0.36,0.94
11.456,0.49,-0.46,1.09
11.462,0.43,-0.39,1.11
11.467,0.29,-0.46,1.20
11.473,0.18,-0.45,1.14
11.477,0.13,-0.41,1.10
11.482,0.05,-0.42,1.09
11.489,0.10,-0.49,1.04
11.493,0.06,-0.44,0.95
11.497,0.12,-0.53,0.87
11.545,0.25,-0.52,0.84
11.546,0.28,-0.53,0.83
11.547,0.36,-0.59,0.83
11.547,0.40,-0.58,0.76
11.548,0.45,-0.49,0.65
11.548,0.49,-0.51,0.60
11.549,0.57,-0.52,0.48
11.549,0.63,-0.46,0.43
11.550,0.61,-0.43,0.38
11.550,0.54,-0.40,0.35
11.552,0.51,-0.33,0.27
11.557,0.52,-0.27,0.33
11.562,0.48,-0.23,0.29
11.567,0.45,-0.14,0.30
11.573,0.43,-0.02,0.26
11.578,0.44,-0.07,0.15
11.583,0.52,-0.07,0.15
11.595,0.61,0.01,0.22
11.598,0.62,0.00,0.29
11.600,0.55,0.01,0.40
11.655,0.52,-0.03,0.51
11.657,0.45,-0.12,0.63
11.659,0.36,-0.19,0.69
11.660,0.33,-0.25,0.71
11.660,0.25,-0.22,0.72
11.661,0.21,-0.27,0.74
11.662,0.18,-0.32,0.74
11.663,0.11,-0.29,0.75
11.664,0.04,-0.28,0.80
11.665,-0.02,-0.32,0.90
11.665,-0.12,-0.44,0.98
11.666,-0.25,-0.50,0.99
11.667,-0.31,-0.48,1.06
11.668,-0.29,-0.44,1.16
11.674,-0.28,-0.43,1.20
11.678,-0.22,-0.48,1.18
11.683,-0.15,-0.47,1.15
11.699,-0.10,-0.35,1.07
11.700,-0.01,-0.27,0.92
11.701,0.11,-0.28,0.85
11.729,0.25,-0.26,0.81
11.730,0.37,-0.28,0.69
11.730,0.47,-0.36,0.58
11.731,0.57,-0.32,0.47
11.731,0.66,-0.28,0.41
11.739,0.75,-0.32,0.49
11.741,0.78,-0.32,0.49
11.742,0.83,-0.28,0.39
11.743,0.92,-0.30,0.33
11.748,0.94,-0.33,0.31
11.753,0.88,-0.27,0.24
11.758,0.87,-0.27,0.15
11.763,0.81,-0.26,0.11
11.768,0.64,-0.19,0.07
11.774,0.53,-0.12,0.09
11.779,0.48,-0.12,0.14
11.784,0.39,-0.08,0.03
11.791,0.23,-0.09,-0.03
11.794,0.06,-0.15,0.02
11.799,-0.05,-0.14,0.00
11.844,-0.12,-0.26,-0.02
11.846,-0.20,-0.41,-0.05
11.847,-0.35,-0.42,-0.06
11.848,-0.53,-0.47,0.03
11.848,-0.65,-0.52,0.08
11.849,-0.73,-0.57,0.11
11.849,-0.71,-0.58,0.11
11.850,-0.60,-0.58,0.12
11.850,-0.49,-0.64,0.06
11.851,-0.37,-0.57,0.05
11.854,-0.14,-0.53,-0.03
11.859,0.08,-0.50,-0.11
11.864,0.27,-0.44,-0.10
11.869,0.47,-0.52,-0.15
11.874,0.69,-0.48,-0.18
11.880,0.89,-0.40,-0.17
11.885,1.03,-0.40,-0.10
11.893,1.12,-0.34,0.00
11.895,1.16,-0.29,0.07
11.900,1.15,-0.26,0.18
11.905,1.07,-0.21,0.17
11.941,1.03,-0.13,0.14
11.943,0.97,-0.06,0.19
11.945,0.89,-0.06,0.11
11.946,0.82,-0.08,0.03
11.947,0.64,-0.13,0.07
11.948,0.56,-0.06,0.14
11.950,0.47,-0.08,0.17
11.951,0.47,-0.16,0.06
11.952,0.32,-0.20,0.08
11.955,0.21,-0.17,0.18
11.960,0.16,-0.26,0.08
11.965,0.03,-0.28,0.01
11.970,-0.08,-0.28,0.05
11.975,-0.07,-0.25,-0.06
11.980,-0.04,-0.30,0.03
11.985,-0.00,-0.31,0.02
11.993,0.02,-0.32,0.13
11.996,0.04,-0.35,0.03
12.000,0.05,-0.37,0.08
12.058,0.05,-0.39,0.05
12.063,0.17,-0.27,0.01
12.064,0.20,-0.32,0.08
12.066,0.25,-0.31,0.08
12.067,0.28,-0.28,-0.04
12.068,0.38,-0.24,-0.08
12.069,0.38,-0.20,-0.22
12.071,0.35,-0.23,-0.19
12.072,0.36,-0.24,-0.27
12.073,0.36,-0.24,-0.20
12.074,0.34,-0.25,-0.07
12.076,0.38,-0.26,-0.08
12.077,0.43,-0.28,-0.14
12.078,0.31,-0.22,-0.11
12.079,0.36,-0.21,-0.26
12.081,0.31,-0.19,-0.20
12.086,0.34,-0.14,-0.24
12.095,0.23,-0.15,-0.23
12.097,0.28,-0.21,-0.29
12.101,0.23,-0.24,-0.26
12.166,0.26,-0.27,-0.23
12.168,0.24,-0.24,-0.20
12.170,0.09,-0.23,-0.17
12.171,0.10,-0.26,-0.18
12.173,0.08,-0.38,-0.17
12.174,-0.06,-0.28,-0.08
12.176,-0.08,-0.31,-0.15
12.179,-0.05,-0.25,-0.24
12.181,-0.13,-0.31,0.01
12.182,-0.15,-0.31,0.04
12.184,-0.13,-0.29,0.05
12.185,-0.13,-0.33,0.08
12.187,-0.09,-0.28,0.03
12.188,-0.06,-0.21,-0.01
12.189,-0.09,-0.26,-0.08
12.191,-0.06,-0.24,-0.18
12.192,-0.05,-0.21,-0.15
12.193,-0.04,-0.24,-0.24
12.195,-0.09,-0.36,-0.08
12.198,-0.10,-0.29,-0.00
12.202,-0.13,-0.16,0.00
12.207,-0.08,-0.23,0.10
12.213,-0.11,-0.26,0.06
12.217,0.06,-0.22,-0.11
12.222,0.06,-0.22,-0.08
12.228,0.13,-0.25,-0.06
12.241,0.13,-0.15,-0.06
12.243,0.13,-0.13,-0.07
12.244,0.15,-0.17,-0.05
12.247,0.19,-0.27,0.06
12.252,0.18,-0.28,-0.07
12.334,0.20,-0.25,-0.05
12.337,0.18,-0.23,-0.10
12.339,0.20,-0.15,-0.10
12.341,0.24,-0.20,-0.15
12.343,0.24,-0.20,-0.16
12.345,0.26,-0.18,-0.22
12.350,0.20,-0.15,-0.17
12.352,0.15,-0.14,-0.09
12.353,0.09,-0.15,-0.03
12.354,0.08,-0.16,0.04
12.355,0.06,-0.15,0.01
12.356,0.02,-0.15,-0.01
12.358,-0.02,-0.14,-0.11
12.359,0.00,-0.18,-0.16
12.360,-0.10,-0.26,-0.23
12.360,-0.14,-0.25,-0.20
12.362,-0.24,-0.27,-0.13
12.363,-0.25,-0.24,-0.16
12.364,-0.22,-0.24,-0.22
12.364,-0.20,-0.26,-0.25
12.365,-0.17,-0.39,-0.25
12.366,-0.07,-0.31,-0.19
12.367,-0.04,-0.31,-0.29
12.373,-0.04,-0.34,-0.40
12.383,0.05,-0.37,-0.44
12.385,0.07,-0.36,-0.44
12.389,0.10,-0.33,-0.44
12.429,0.04,-0.31,-0.38
12.430,0.01,-0.31,-0.36
12.431,-0.02,-0.29,-0.25
12.432,0.01,-0.27,-0.24
12.433,0.06,-0.28,-0.28
12.433,0.00,-0.29,-0.40
12.434,-0.05,-0.32,-0.51
12.434,-0.02,-0.26,-0.45
12.437,-0.04,-0.24,-0.46
12.438,-0.09,-0.26,-0.51
12.445,-0.13,-0.28,-0.61
12.448,-0.11,-0.27,-0.68
12.452,-0.05,-0.27,-0.66
12.457,-0.01,-0.30,-0.64
12.481,0.04,-0.36,-0.70
12.482,0.06,-0.43,-0.78
12.483,0.05,-0.50,-0.77
12.484,-0.00,-0.43,-0.71
12.484,-0.04,-0.41,-0.66
12.488,-0.00,-0.50,-0.67
12.494,-0.07,-0.58,-0.80
12.498,-0.17,-0.56,-0.84
12.503,-0.16,-0.54,-0.78
12.508,-0.11,-0.56,-0.78
12.514,-0.01,-0.48,-0.70
12.522,0.14,-0.36,-0.51
12.523,0.20,-0.24,-0.16
12.551,0.12,-0.13,0.24
12.553,-0.00,0.01,0.57
12.554,-0.06,0.11,0.86
12.555,-0.14,0.14,1.05
12.556,-0.24,0.19,1.08
12.557,-0.30,0.15,1.02
12.559,-0.42,0.04,0.93
12.564,-0.52,-0.03,0.73
12.568,-0.55,-0.13,0.48
12.573,-0.48,-0.22,0.28
12.581,-0.44,-0.33,0.08
12.583,-0.50,-0.39,-0.25
12.588,-0.47,-0.36,-0.58
12.606,-0.43,-0.36,-0.61
12.607,-0.53,-0.38,-0.73
12.608,-0.52,-0.35,-0.89
12.670,-0.40,-0.31,-0.67
12.673,-0.33,-0.25,-0.47
12.674,-0.27,-0.27,-0.40
12.675,-0.24,-0.31,-0.45
12.677,-0.20,-0.25,-0.36
12.678,-0.12,-0.28,-0.21
12.680,-0.06,-0.33,-0.33
12.683,-0.03,-0.30,-0.31
12.685,0.02,-0.27,-0.23
12.686,0.01,-0.27,-0.31
12.687,-0.06,-0.29,-0.49
12.688,-0.05,-0.23,-0.60
12.689,-0.05,-0.24,-0.61
12.691,-0.04,-0.28,-0.48
12.692,-0.08,-0.27,-0.30
12.693,-0.08,-0.23,-0.07
12.694,-0.08,-0.22,0.07
12.695,-0.10,-0.26,0.14
12.703,-0.13,-0.29,0.16
12.705,-0.15,-0.27,0.22
12.710,-0.09,-0.26,0.19
12.722,-0.04,-0.24,0.06
12.724,0.03,-0.20,-0.07
12.725,0.12,-0.25,-0.14
12.779,0.18,-0.29,-0.31
12.781,0.23,-0.26,-0.36
12.782,0.25,-0.27,-0.36
12.783,0.26,-0.26,-0.30
12.784,0.25,-0.29,-0.18
12.784,0.29,-0.23,-0.23
12.785,0.18,-0.24,-0.20
12.785,0.17,-0.27,-0.20
12.786,0.08,-0.30,-0.19
12.786,0.02,-0.34,-0.24
12.787,0.00,-0.28,-0.24
12.787,0.01,-0.34,-0.20
12.793,-0.05,-0.29,-0.28
12.795,-0.12,-0.28,-0.22
12.800,-0.04,-0.29,-0.15
12.805,-0.08,-0.19,-0.28
12.810,-0.08,-0.22,-0.32
12.816,-0.01,-0.26,-0.35
12.826,0.01,-0.24,-0.23
12.827,-0.01,-0.20,-0.27
12.887,0.05,-0.24,-0.28
12.891,0.03,-0.24,-0.22
12.893,-0.01,-0.32,-0.25
12.895,0.01,-0.41,-0.19
12.897,-0.00,-0.30,-0.00
12.899,-0.04,-0.32,-0.00
12.901,-0.17,-0.29,-0.09
12.903,-0.24,-0.23,-0.28
12.905,-0.29,-0.36,-0.45
12.907,-0.30,-0.32,-0.54
12.908,-0.27,-0.32,-0.54
12.910,-0.20,-0.34,-0.56
12.912,-0.13,-0.25,-0.43
12.914,-0.26,-0.24,-0.36
12.917,-0.14,-0.26,-0.30
12.919,-0.16,-0.26,-0.21
12.921,-0.14,-0.20,-0.21
12.922,-0.12,-0.20,-0.10
12.925,-0.15,-0.17,-0.19
12.927,0.04,-0.21,-0.08
12.932,-0.05,-0.24,-0.10
12.937,0.04,-0.29,-0.13
12.941,-0.02,-0.24,-0.27
12.957,0.04,-0.22,-0.29
12.960,-0.07,-0.25,-0.37
12.961,-0.10,-0.27,-0.44
12.963,-0.10,-0.30,-0.54
13.019,-0.11,-0.34,-0.45
13.021,-0.16,-0.27,-0.53
13.022,-0.18,-0.33,-0.47
13.022,-0.33,-0.32,-0.40
13.023,-0.24,-0.36,-0.34
13.025,-0.30,-0.29,-0.22
13.027,-0.31,-0.26,-0.10
13.029,-0.35,-0.27,-0.12
13.030,-0.34,-0.19,-0.02
13.031,-0.33,-0.19,-0.09
13.032,-0.27,-0.23,-0.11
13.036,-0.20,-0.17,-0.15
13.037,-0.18,-0.14,-0.15
13.038,-0.13,-0.24,-0.14
13.039,-0.12,-0.18,-0.23
13.040,-0.06,-0.19,-0.35
13.042,-0.10,-0.16,-0.32
13.054,-0.10,-0.25,-0.19
13.057,-0.07,-0.28,-0.26
13.057,-0.00,-0.28,-0.26
13.062,0.03,-0.20,-0.18
13.117,0.04,-0.32,-0.17
13.119,0.04,-0.32,-0.20
13.120,-0.09,-0.35,-0.18
13.121,-0.05,-0.27,-0.25
13.121,-0.10,-0.28,-0.19
13.122,-0.09,-0.25,-0.13
13.123,-0.04,-0.26,-0.17
13.123,-0.09,-0.29,-0.20
13.124,-0.11,-0.30,-0.09
13.124,-0.12,-0.27,-0.10
13.125,-0.02,-0.26,-0.13
13.126,-0.03,-0.26,-0.14
13.127,-0.03,-0.28,-0.17
13.132,0.00,-0.21,-0.14
13.137,0.06,-0.24,-0.23
13.142,0.02,-0.28,-0.23
13.147,0.01,-0.28,-0.31
13.153,0.01,-0.32,-0.30
13.157,0.05,-0.40,-0.28
13.162,0.01,-0.44,-0.25
13.233,0.01,-0.39,-0.18
13.236,-0.02,-0.35,-0.14
13.238,-0.07,-0.32,-0.10
13.239,-0.12,-0.32,-0.04
13.240,-0.12,-0.26,-0.01
13.241,-0.05,-0.25,0.02
13.242,-0.05,-0.30,-0.03
13.243,-0.02,-0.33,-0.08
13.244,0.02,-0.29,-0.06
13.245,0.06,-0.30,-0.08
13.246,0.12,-0.30,-0.11
13.248,0.06,-0.27,-0.14
13.255,0.00,-0.27,-0.12
13.256,0.04,-0.30,-0.17
13.258,0.07,-0.26,-0.14
13.260,0.12,-0.26,-0.21
13.261,0.11,-0.23,-0.31
13.263,0.08,-0.23,-0.25
13.265,0.12,-0.33,-0.28
13.267,0.12,-0.37,-0.23
13.267,0.13,-0.43,-0.18
13.274,0.16,-0.50,-0.23
13.278,0.15,-0.48,-0.13
13.286,0.16,-0.52,-0.07
13.288,0.18,-0.50,-0.07
13.293,0.16,-0.46,-0.03
13.298,0.14,-0.37,-0.06
13.355,0.19,-0.28,-0.05
13.358,0.20,-0.28,-0.01
13.360,0.16,-0.22,0.00
13.361,0.13,-0.15,-0.00
13.362,0.13,-0.12,-0.03
13.362,0.13,-0.11,0.02
13.363,0.15,-0.08,0.03
13.364,0.20,-0.04,-0.00
13.365,0.19,-0.05,0.04
13.367,0.15,-0.12,0.05
13.368,0.14,-0.16,0.05
13.371,0.13,-0.17,0.07
13.373,0.16,-0.16,0.05
13.374,0.20,-0.17,-0.01
13.375,0.15,-0.12,0.01
13.384,0.16,-0.02,0.08
13.388,0.17,-0.01,0.09
13.389,0.13,-0.11,0.09
13.394,0.09,-0.20,0.10
13.399,0.04,-0.23,0.05
13.446,0.04,-0.18,0.03
13.448,0.03,-0.17,0.07
13.449,0.02,-0.20,0.03
13.450,0.03,-0.17,-0.04
13.451,0.07,-0.20,-0.04
13.451,0.03,-0.25,-0.00
13.452,0.07,-0.27,-0.02
13.453,0.13,-0.29,-0.05
13.455,0.14,-0.26,-0.06
13.456,0.22,-0.27,-0.01
13.457,0.21,-0.22,0.05
13.464,0.25,-0.22,0.07
13.466,0.30,-0.27,0.01
13.515,0.29,-0.29,0.02
13.517,0.26,-0.28,0.04
13.518,0.34,-0.25,-0.02
13.519,0.39,-0.23,-0.06
13.520,0.39,-0.21,-0.09
13.520,0.40,-0.26,-0.10
13.522,0.40,-0.22,-0.10
13.523,0.37,-0.19,-0.22
13.524,0.36,-0.15,-0.18
13.525,0.26,-0.24,-0.14
13.525,0.21,-0.27,-0.12
13.526,0.18,-0.22,-0.06
13.529,0.15,-0.24,-0.08
13.535,0.11,-0.26,-0.05
13.540,0.10,-0.30,-0.07
13.545,0.08,-0.28,-0.08
13.550,0.08,-0.25,-0.07
13.558,0.07,-0.25,-0.04
13.561,0.02,-0.27,-0.08
13.565,0.06,-0.23,-0.12
13.613,0.04,-0.23,-0.14
13.616,0.05,-0.30,-0.20
13.617,0.11,-0.27,-0.21
13.619,0.00,-0.25,-0.17
13.621,-0.02,-0.33,-0.20
13.622,0.09,-0.23,-0.20
13.624,-0.08,-0.30,-0.14
13.625,-0.04,-0.29,-0.11
13.626,-0.03,-0.32,-0.07
13.627,0.04,-0.17,-0.07
13.629,0.07,-0.17,-0.10
13.630,0.04,-0.21,-0.08
13.631,0.07,-0.29,-0.15
13.635,0.08,-0.31,-0.20
13.640,0.10,-0.28,-0.16
13.645,0.08,-0.31,-0.30
13.650,0.08,-0.24,-0.31
13.663,0.12,-0.29,-0.40
13.665,0.11,-0.22,-0.31
13.666,0.06,-0.29,-0.35
13.702,0.08,-0.32,-0.44
13.703,0.06,-0.20,-0.34
13.705,0.07,-0.32,-0.32
13.706,-0.07,-0.24,-0.22
13.707,-0.02,-0.32,-0.06
13.707,-0.05,-0.40,-0.11
13.708,-0.09,-0.21,-0.11
13.709,-0.05,-0.23,-0.13
13.710,-0.00,-0.19,-0.10
13.715,-0.02,-0.16,-0.02
13.722,-0.02,-0.17,-0.06
13.725,-0.03,-0.16,-0.14
13.730,0.01,-0.28,-0.17
13.741,-0.04,-0.27,-0.15
13.742,-0.06,-0.14,-0.17
13.745,-0.04,-0.27,-0.25
13.750,0.02,-0.22,-0.22
13.779,-0.07,-0.18,-0.20
13.782,-0.13,-0.22,-0.23
13.783,-0.10,-0.28,-0.18
13.784,-0.10,-0.18,-0.14
13.785,-0.02,-0.32,-0.15
13.785,0.01,-0.45,-0.17
13.786,0.03,-0.46,-0.17
13.787,0.11,-0.40,-0.23
13.793,0.10,-0.30,-0.21
13.796,0.20,-0.32,-0.32
13.801,0.25,-0.26,-0.37
13.811,0.23,-0.22,-0.24
13.813,0.24,-0.24,-0.35
13.817,0.26,-0.15,-0.37
13.877,0.21,-0.20,-0.27
13.880,0.18,-0.18,-0.21
13.881,0.19,-0.20,-0.29
13.882,0.14,-0.24,-0.31
13.883,0.17,-0.21,-0.23
13.884,0.13,-0.19,-0.25
13.885,0.16,-0.21,-0.18
13.886,0.22,-0.17,-0.20
13.887,0.25,-0.19,-0.16
13.888,0.21,-0.15,-0.23
13.889,0.17,-0.20,-0.19
13.890,0.13,-0.24,-0.22
13.892,0.12,-0.29,-0.24
13.893,0.15,-0.23,-0.21
13.895,0.11,-0.27,-0.28
13.897,0.08,-0.25,-0.34
13.903,0.06,-0.23,-0.35
13.910,0.08,-0.23,-0.38
13.912,0.05,-0.28,-0.40
13.917,0.03,-0.32,-0.37
13.994,0.01,-0.29,-0.32
13.997,0.02,-0.33,-0.35
13.999,-0.02,-0.32,-0.42
14.000,0.02,-0.33,-0.47
14.001,0.06,-0.30,-0.49
14.003,0.21,-0.27,-0.54
14.004,0.26,-0.22,-0.47
14.005,0.30,-0.14,-0.49
14.009,0.33,-0.08,-0.57
14.011,0.38,0.02,-0.60
14.012,0.38,-0.00,-0.61
14.013,0.45,-0.14,-0.54
14.015,0.45,-0.32,-0.53
14.016,0.42,-0.38,-0.58
14.017,0.44,-0.46,-0.61
14.018,0.47,-0.54,-0.64
14.020,0.44,-0.61,-0.66
14.021,0.43,-0.75,-0.58
14.022,0.40,-0.74,-0.59
14.024,0.46,-0.77,-0.60
14.025,0.48,-0.88,-0.61
14.028,0.45,-0.93,-0.58
14.034,0.40,-0.95,-0.55
14.048,0.31,-0.96,-0.57
14.051,0.29,-0.90,-0.56
14.053,0.24,-0.90,-0.54
14.054,0.10,-0.78,-0.49
14.103,0.06,-0.55,-0.22
14.105,-0.01,-0.32,0.36
14.106,-0.15,-0.06,0.74
14.107,-0.32,0.10,0.72
14.110,-0.42,0.12,0.53
14.111,-0.42,0.18,0.53
14.112,-0.44,0.18,0.57
14.113,-0.43,0.10,0.62
14.114,-0.35,0.04,0.66
14.114,-0.36,-0.09,0.58
14.115,-0.34,-0.24,0.55
14.116,-0.33,-0.34,0.47
14.119,-0.33,-0.42,0.36
14.127,-0.31,-0.40,0.35
14.129,-0.25,-0.44,0.41
14.133,-0.19,-0.43,0.39
14.138,-0.25,-0.35,0.29
14.171,-0.31,-0.35,0.31
14.173,-0.30,-0.25,0.33
14.174,-0.24,-0.10,0.31
14.176,-0.25,0.00,0.32
14.177,-0.25,0.04,0.38
14.178,-0.15,0.03,0.43
14.178,-0.02,0.04,0.43
14.179,0.02,0.06,0.43
14.183,0.07,0.11,0.43
14.188,0.17,0.13,0.41
14.193,0.26,0.11,0.47
14.198,0.25,0.11,0.53
14.203,0.22,0.11,0.60
14.220,0.32,0.15,0.66
14.221,0.36,0.26,0.58
14.222,0.40,0.28,0.63
14.259,0.44,0.24,0.62
14.264,0.40,0.17,0.58
14.265,0.41,0.16,0.62
14.265,0.39,0.03,0.57
14.266,0.26,-0.08,0.42
14.266,0.19,-0.13,0.36
14.267,0.12,-0.20,0.27
14.267,0.06,-0.29,0.32
14.268,0.02,-0.41,0.23
14.269,-0.03,-0.53,0.13
14.274,-0.06,-0.59,0.14
14.279,-0.09,-0.55,0.08
14.284,-0.07,-0.54,-0.04
14.289,-0.04,-0.55,-0.08
14.294,-0.05,-0.54,-0.15
14.299,-0.08,-0.42,-0.21
14.304,-0.07,-0.33,-0.24
14.313,-0.00,-0.36,-0.28
14.315,-0.03,-0.25,-0.37
14.320,-0.02,-0.29,-0.36
14.368,-0.08,-0.31,-0.32
14.371,-0.05,-0.29,-0.33
14.372,-0.02,-0.26,-0.32
14.374,0.03,-0.26,-0.35
14.375,0.03,-0.20,-0.39
14.376,-0.05,-0.19,-0.35
14.377,0.02,-0.23,-0.27
14.377,-0.01,-0.14,-0.25
14.380,-0.01,-0.14,-0.08
14.381,0.02,-0.20,0.00
14.381,0.02,-0.21,0.11
14.382,0.05,-0.21,0.22
14.385,0.05,-0.32,0.19
14.390,0.08,-0.32,0.20
14.397,0.10,-0.28,0.05
14.400,0.09,-0.32,-0.05
14.404,0.12,-0.27,-0.18
14.434,0.09,-0.19,-0.26
14.435,0.07,-0.16,-0.30
14.437,0.05,-0.23,-0.38
14.438,0.02,-0.18,-0.29
14.438,0.02,-0.17,-0.32
14.439,-0.01,-0.15,-0.29
14.440,-0.09,-0.20,-0.32
14.446,-0.08,-0.18,-0.16
14.450,-0.06,-0.20,-0.05
14.455,-0.03,-0.28,-0.05
14.460,-0.06,-0.30,0.01
14.465,-0.01,-0.29,0.12
14.470,-0.00,-0.26,0.14
14.475,0.01,-0.36,0.04
14.480,-0.02,-0.30,0.18
14.485,0.06,-0.31,-0.02
14.492,0.07,-0.41,-0.02
14.496,-0.00,-0.41,-0.14
14.501,0.03,-0.38,-0.22
14.507,0.04,-0.32,-0.28
14.519,-0.01,-0.32,-0.31
14.521,0.03,-0.40,-0.31
14.522,-0.01,-0.34,-0.32
14.574,0.09,-0.39,-0.33
14.577,0.07,-0.33,-0.28
14.578,0.12,-0.33,-0.24
14.579,0.02,-0.35,-0.23
14.581,0.06,-0.34,-0.12
14.583,0.15,-0.26,-0.03
14.584,0.12,-0.29,0.05
14.585,0.08,-0.32,0.07
14.586,0.07,-0.25,-0.07
14.587,0.07,-0.24,0.01
14.588,0.05,-0.19,-0.08
14.588,0.11,-0.12,-0.04
14.590,0.14,-0.23,-0.00
14.591,0.15,-0.20,-0.12
14.597,0.04,-0.16,-0.07
14.598,0.01,-0.27,-0.01
14.601,0.02,-0.26,-0.02
14.606,-0.08,-0.27,-0.06
14.616,-0.04,-0.16,-0.07
14.619,-0.09,-0.12,-0.08
14.621,-0.06,-0.17,0.07
14.689,-0.04,-0.17,-0.05
14.692,-0.11,-0.20,0.05
14.694,-0.11,-0.19,0.00
14.695,-0.07,-0.13,-0.02
14.697,-0.08,-0.16,-0.03
14.700,-0.06,-0.21,-0.04
14.701,0.02,-0.25,-0.12
14.702,-0.02,-0.27,-0.09
14.702,0.01,-0.23,-0.15
14.703,-0.00,-0.22,-0.06
14.704,0.05,-0.20,-0.06
14.705,-0.00,-0.22,0.06
14.706,-0.02,-0.31,0.02
14.707,-0.03,-0.28,-0.03
14.708,-0.09,-0.36,-0.12
14.709,-0.14,-0.33,-0.08
14.710,-0.17,-0.27,-0.13
14.713,-0.14,-0.33,-0.11
14.717,-0.16,-0.41,-0.11
14.722,-0.15,-0.38,-0.12
14.729,-0.20,-0.35,-0.21
14.735,-0.21,-0.27,-0.22
14.737,-0.21,-0.28,-0.17
14.741,-0.16,-0.28,-0.12
14.806,-0.19,-0.24,-0.09
14.808,-0.17,-0.17,-0.14
14.809,-0.10,-0.09,-0.09
14.810,-0.06,-0.18,-0.08
14.811,-0.00,-0.25,-0.03
14.811,0.05,-0.27,-0.05
14.812,0.09,-0.30,-0.01
14.813,0.09,-0.30,-0.06
14.816,0.06,-0.26,-0.24
14.817,0.08,-0.33,-0.23
14.818,0.04,-0.31,-0.27
14.818,-0.02,-0.27,-0.30
14.819,0.02,-0.20,-0.22
14.820,0.08,-0.21,-0.14
14.820,0.07,-0.22,-0.04
14.823,0.04,-0.23,-0.04
14.833,0.03,-0.23,0.06
14.834,-0.00,-0.15,0.07
14.837,-0.03,-0.17,0.15
14.843,-0.00,-0.23,0.19
14.896,-0.05,-0.27,0.09
14.899,-0.09,-0.17,0.08
14.900,-0.02,-0.21,0.14
14.902,0.01,-0.25,0.10
14.903,-0.06,-0.23,0.04
14.904,-0.03,-0.21,-0.00
14.905,0.02,-0.21,-0.01
14.906,0.04,-0.18,0.04
14.907,0.08,-0.16,0.08
14.908,0.07,-0.19,0.12
14.910,0.09,-0.15,0.14
14.911,0.09,-0.19,0.08
14.912,0.10,-0.27,-0.04
14.913,0.12,-0.24,-0.11
14.918,0.07,-0.27,-0.12
14.923,0.08,-0.34,-0.12
14.933,0.14,-0.31,-0.11
14.934,0.16,-0.29,-0.15
14.939,0.16,-0.29,-0.17
14.944,0.17,-0.28,-0.18
14.984,0.22,-0.24,-0.20
14.985,0.20,-0.18,-0.13
14.986,0.11,-0.17,-0.09
14.986,0.11,-0.15,-0.12
14.987,0.06,-0.15,-0.07
14.988,-0.12,-0.36,1.16
14.988,-0.41,-0.29,1.95
14.989,-0.66,-0.21,1.81
14.989,-0.56,-0.10,1.27
14.993,-0.19,0.20,-0.33
14.998,0.04,-0.05,-0.10
15.003,0.09,-0.17,0.30
15.008,0.09,-0.20,-0.19
15.014,0.05,-0.21,-0.55
15.018,0.11,-0.24,-0.51
15.023,0.17,-0.28,-0.59
15.028,0.24,-0.27,-0.68
15.052,0.37,-0.26,-0.75
15.053,0.43,-0.32,-0.75
15.054,0.43,-0.29,-0.70
15.055,0.34,-0.25,-0.60
15.056,0.23,-0.23,-0.52
15.058,0.08,-0.27,-0.54
15.064,-0.11,-0.21,-0.56
15.069,-0.27,-0.21,-0.56
15.074,-0.32,-0.23,-0.57
15.079,-0.36,-0.23,-0.56
15.084,-0.44,-0.28,-0.42
15.089,-0.36,-0.39,-0.26
15.095,-0.26,-0.38,-0.07
15.100,-0.13,-0.37,0.16
15.105,0.03,-0.43,0.23
15.111,0.11,-0.36,0.33
15.121,0.16,-0.33,0.31
15.130,0.21,-0.29,0.36
15.132,0.21,-0.29,0.40
15.134,0.24,-0.15,0.29
15.135,0.21,-0.10,0.15
15.175,0.19,-0.10,-0.02
15.176,0.12,-0.12,-0.08
15.177,0.05,-0.15,-0.11
15.178,0.10,-0.15,-0.06
15.179,0.02,-0.08,-0.00
15.180,-0.02,-0.11,-0.07
15.181,-0.07,-0.21,-0.07
15.181,-0.05,-0.11,-0.08
15.182,-0.11,-0.09,-0.22
15.184,-0.09,-0.15,-0.31
15.189,-0.03,-0.13,-0.43
15.194,-0.03,-0.23,-0.50
15.199,0.03,-0.21,-0.45
15.204,0.12,-0.29,-0.41
15.209,0.17,-0.24,-0.31
15.216,0.19,-0.17,-0.20
15.219,0.18,-0.14,-0.06
15.224,0.20,-0.15,0.02
15.229,0.18,-0.16,0.02
15.273,0.13,-0.29,0.02
15.274,0.10,-0.19,0.04
15.274,0.05,-0.24,-0.05
15.275,0.06,-0.30,-0.24
15.276,0.03,-0.33,-0.27
15.276,0.05,-0.40,-0.38
15.277,0.01,-0.36,-0.48
15.277,0.06,-0.28,-0.47
15.278,0.12,-0.34,-0.56
15.280,0.11,-0.26,-0.52
15.285,0.08,-0.21,-0.49
15.290,0.12,-0.22,-0.47
15.295,0.21,-0.20,-0.34
15.300,0.18,-0.27,-0.32
15.305,0.11,-0.21,-0.19
15.310,0.13,-0.26,-0.25
15.316,0.20,-0.20,-0.28
15.320,0.21,-0.23,-0.23
15.325,0.12,-0.25,-0.29
15.330,0.17,-0.29,-0.16
15.343,0.18,-0.33,-0.19
15.344,0.21,-0.24,-0.08
15.345,0.32,-0.16,0.01
15.350,0.28,-0.19,0.16
15.355,0.26,-0.19,0.23
15.360,0.15,-0.14,0.28
15.365,0.08,-0.03,0.21
15.370,0.05,0.05,-0.00
15.375,0.18,0.06,-0.05
15.380,0.12,-0.02,-0.22
15.386,0.23,0.03,-0.29
15.390,0.16,-0.01,-0.43
15.395,0.20,-0.00,-0.48
15.401,0.21,-0.09,-0.55
15.406,0.24,0.02,-0.57
15.407,0.25,-0.11,-0.55
15.410,0.20,-0.10,-0.49
15.415,0.05,-0.18,-0.35
15.421,0.09,-0.16,-0.30
15.426,0.04,-0.26,-0.30
15.431,0.01,-0.25,-0.31
15.436,-0.12,-0.23,-0.35
15.441,-0.07,-0.16,-0.46
15.446,-0.05,-0.30,-0.26
15.451,0.02,-0.30,-0.46
15.456,-0.11,-0.23,-0.45
15.461,0.04,-0.27,-0.41
15.488,0.13,-0.24,-0.39
15.489,0.09,-0.25,-0.46
15.491,0.11,-0.25,-0.50
15.492,0.06,-0.37,-0.49
15.492,-0.05,-0.36,-0.46
15.493,-0.06,-0.34,-0.56
15.496,-0.14,-0.44,-0.34
15.501,-0.26,-0.54,-0.28
15.506,-0.23,-0.58,-0.14
15.511,-0.25,-0.61,-0.00
15.516,-0.29,-0.71,0.18
15.521,-0.37,-0.73,0.15
15.526,-0.41,-0.79,0.17
15.531,-0.39,-0.80,0.10
15.536,-0.34,-0.76,0.03
15.541,-0.29,-0.74,0.08
15.546,-0.29,-0.61,0.11
15.552,-0.21,-0.57,0.10
15.557,-0.11,-0.51,-0.03
15.561,0.04,-0.40,-0.18
15.567,0.22,-0.30,-0.35
15.578,0.33,-0.24,-0.40
15.579,0.37,-0.26,-0.40
15.582,0.36,-0.29,-0.43
15.586,0.30,-0.37,-0.51
15.592,0.29,-0.43,-0.37
15.597,0.25,-0.46,-0.24
15.602,0.14,-0.51,-0.23
15.607,0.03,-0.41,-0.14
15.612,0.00,-0.37,-0.01
15.617,0.04,-0.22,0.15
15.622,0.01,-0.06,0.31
15.627,0.02,0.05,0.43
15.632,-0.03,0.04,0.41
15.637,-0.07,0.08,0.30
15.642,-0.15,0.07,0.20
15.647,-0.23,0.10,0.08
15.653,-0.37,0.08,-0.05
15.657,-0.48,0.02,-0.22
15.662,-0.59,0.01,-0.34
15.686,-0.66,-0.01,-0.38
15.687,-0.78,-0.01,-0.43
15.688,-0.88,-0.03,-0.40
15.689,-0.84,-0.05,-0.36
15.690,-0.82,-0.17,-0.16
15.692,-0.89,-0.23,0.17
15.697,-0.98,-0.12,0.19
15.702,-0.90,-0.14,-0.30
15.707,-0.77,-0.26,-0.61
15.712,-0.71,-0.29,-0.42
15.718,-0.66,-0.26,-0.28
15.722,-0.56,-0.22,-0.43
15.730,-0.53,-0.19,-0.47
15.733,-0.54,-0.19,-0.47
15.738,-0.51,-0.18,-0.49
15.743,-0.46,-0.14,-0.51
15.748,-0.37,-0.14,-0.63
15.754,-0.36,-0.12,-0.69
15.758,-0.38,-0.10,-0.74
15.763,-0.34,-0.10,-0.82
15.780,-0.31,-0.10,-0.81
15.781,-0.28,-0.04,-0.76
15.782,-0.20,-0.05,-0.71
15.783,-0.10,-0.15,-0.71
15.788,-0.02,-0.20,-0.77
15.793,-0.02,-0.19,-0.79
15.798,-0.03,-0.17,-0.81
15.803,0.00,-0.20,-0.90
15.808,0.01,-0.14,-0.98
15.813,0.02,-0.17,-0.92
15.819,0.05,-0.19,-0.92
15.823,0.13,-0.18,-0.99
15.828,0.17,-0.16,-0.96
15.833,0.13,-0.16,-1.02
15.838,0.11,-0.15,-1.08
15.843,0.03,-0.06,-1.02
15.849,0.03,-0.06,-0.97
15.855,-0.01,-0.11,-1.02
15.858,-0.05,-0.13,-1.01
15.863,-0.10,-0.08,-0.93
15.869,-0.14,-0.08,-0.89
15.887,-0.21,-0.09,-0.83
15.887,-0.34,-0.16,-0.71
15.888,-0.42,-0.12,-0.61
15.888,-0.50,-0.18,-0.58
15.893,-0.55,-0.22,-0.47
15.899,-0.67,-0.24,-0.57
15.904,-0.78,-0.21,-0.64
15.908,-0.84,-0.21,-0.60
15.914,-0.91,-0.27,-0.65
15.919,-0.94,-0.38,-0.79
15.924,-0.98,-0.29,-0.90
15.929,-1.02,-0.23,-0.98
15.934,-1.10,-0.17,-0.83
15.939,-1.00,-0.19,-0.84
15.944,-0.91,-0.13,-0.94
15.949,-0.87,-0.11,-1.01
15.956,-0.79,-0.04,-0.99
15.959,-0.80,-0.03,-1.12
15.964,-0.77,0.03,-1.17
15.969,-0.66,0.04,-1.21
15.990,-0.60,-0.04,-1.24
15.991,-0.61,-0.03,-1.13
15.992,-0.54,-0.07,-1.14
15.992,-0.50,-0.09,-1.12
15.994,-0.50,-0.19,-1.05
15.999,-0.53,-0.20,-1.08
16.004,-0.52,-0.29,-1.02
16.009,-0.56,-0.22,-0.94
16.014,-0.46,-0.30,-1.00
16.019,-0.51,-0.32,-0.96
16.024,-0.53,-0.34,-1.09
16.030,-0.47,-0.38,-1.10
16.035,-0.49,-0.45,-1.07
16.039,-0.54,-0.45,-1.06
16.044,-0.61,-0.47,-1.10
16.050,-0.67,-0.45,-1.12
16.056,-0.74,-0.42,-1.13
16.060,-0.81,-0.55,-1.20
16.065,-0.77,-0.67,-0.96
16.070,-0.78,-0.72,-1.03
16.084,-0.70,-0.86,-0.97
16.086,-0.58,-1.01,-0.92
16.087,-0.49,-1.12,-0.91
16.090,-0.56,-1.13,-0.98
16.095,-0.53,-1.32,-0.96
16.100,-0.67,-1.32,-0.97
16.107,-0.81,-1.49,-0.94
16.110,-0.81,-1.46,-0.80
16.115,-0.92,-1.62,-0.96
16.121,-0.98,-1.71,-0.77
16.125,-1.00,-1.68,-0.80
16.130,-0.92,-1.76,-0.98
16.136,-0.97,-1.69,-1.01
16.140,-0.97,-1.72,-1.25
16.145,-1.08,-1.74,-1.27
16.151,-1.16,-1.63,-1.42
16.157,-1.19,-1.81,-1.49
16.163,-1.31,-1.90,-1.49
16.165,-1.33,-2.10,-1.61
16.170,-1.46,-2.41,-1.69
16.183,-1.70,-2.34,-1.55
16.184,-1.93,-2.50,-1.64
16.185,-2.13,-2.52,-1.44
16.194,-2.29,-2.70,-1.60
16.196,-2.41,-2.51,-1.48
16.200,-2.33,-2.60,-1.47
16.205,-2.26,-2.63,-1.62
16.211,-2.25,-2.39,-1.56
16.216,-2.07,-2.23,-1.74
16.225,-1.95,-2.31,-1.80
16.227,-1.69,-2.32,-1.84
16.233,-1.40,-2.35,-1.99
16.234,-1.13,-2.27,-2.13
16.236,-0.83,-2.16,-2.36
16.241,-0.57,-1.99,-2.52
16.246,-0.26,-1.89,-2.75
16.254,-0.05,-1.55,-2.72
16.260,0.15,-1.26,-3.02
16.261,0.38,-1.10,-3.11
16.266,0.64,-0.96,-3.29
16.271,0.90,-0.80,-3.57
16.285,1.27,-0.76,-3.87
16.286,1.57,-0.76,-3.91
16.287,1.93,-0.74,-3.95
16.291,2.11,-0.90,-3.84
16.297,2.33,-0.90,-3.71
16.301,2.30,-0.90,-3.63
16.306,2.22,-0.79,-3.67
16.315,2.25,-0.76,-3.44
16.316,2.21,-0.66,-3.09
16.321,2.08,-0.58,-2.54
16.326,1.88,-0.64,-1.81
16.331,1.55,-0.67,-1.11
16.336,1.27,-0.71,-0.34
16.344,1.08,-0.85,0.34
16.346,0.81,-0.93,1.12
16.352,0.73,-1.16,1.99
16.361,0.67,-1.39,2.65
16.362,0.57,-1.55,3.08
16.370,0.56,-1.78,3.52
16.392,0.55,-1.95,3.72
16.394,0.57,-1.93,3.70
16.395,0.49,-2.07,3.82
16.395,0.41,-2.02,3.84
16.396,0.24,-1.98,3.79
16.396,0.23,-1.89,3.77
16.404,0.06,-1.82,3.82
16.406,-0.09,-1.61,3.71
16.412,-0.23,-1.45,3.61
16.417,-0.42,-1.25,3.45
16.422,-0.67,-1.05,3.19
16.427,-0.79,-0.86,2.96
16.435,-0.94,-0.73,2.55
16.437,-0.95,-0.70,1.96
16.442,-0.82,-0.83,1.36
16.447,-0.61,-1.05,0.88
16.452,-0.12,-1.31,0.55
16.459,0.39,-1.48,0.45
16.467,0.89,-1.62,0.61
16.468,1.35,-1.73,0.84
16.472,1.69,-1.73,1.15
16.487,1.80,-1.67,1.37
16.488,1.84,-1.59,1.44
16.489,1.94,-1.47,1.53
16.499,1.94,-1.27,1.62
16.500,1.87,-1.10,1.72
16.502,1.82,-0.90,1.94
16.507,1.68,-0.75,2.20
16.512,1.57,-0.61,2.36
16.517,1.53,-0.50,2.51
16.523,1.53,-0.44,2.63
16.528,1.53,-0.51,2.63
16.533,1.50,-0.50,2.56
16.538,1.49,-0.39,2.43
16.547,1.43,-0.30,2.34
16.549,1.34,-0.22,2.35
16.553,1.32,-0.09,2.28
16.561,1.26,-0.01,2.23
16.563,1.18,-0.03,2.17
16.572,1.10,-0.00,2.08
16.595,1.14,0.10,2.06
16.596,1.20,0.18,2.03
16.618,0.36,1.34,0.18
16.624,0.43,1.45,0.22
16.630,0.47,1.57,0.26
16.634,0.45,1.64,0.17
16.639,0.44,1.74,0.01
16.643,0.49,1.88,-0.03
16.649,0.45,1.97,-0.08
16.654,0.39,2.14,-0.22
16.666,0.27,2.24,-0.24
16.668,0.21,2.22,-0.27
16.669,0.21,2.25,-0.43
16.674,0.09,2.31,-0.62
16.703,-0.01,2.14,-0.82
16.704,-0.03,2.06,-1.09
16.705,-0.10,1.99,-1.37
16.706,-0.12,1.89,-1.65
16.707,-0.17,1.78,-1.77
16.707,-0.39,1.68,-1.96
16.711,-0.57,1.61,-2.23
16.717,-0.75,1.67,-2.47
16.789,-0.90,1.63,-2.67
16.791,-1.15,1.60,-2.79
16.792,-1.39,1.61,-2.90
16.792,-1.56,1.60,-3.05
16.793,-1.63,1.64,-3.05
16.794,-1.88,1.64,-3.05
16.795,-1.94,1.66,-3.24
16.796,-1.99,1.72,-3.42
16.797,-2.22,1.71,-3.75
16.803,-2.37,1.69,-4.08
16.804,-2.31,1.73,-4.50
16.805,-2.32,1.73,-4.68
16.807,-2.35,1.65,-4.80
16.808,-2.19,1.66,-4.78
16.809,-2.17,1.49,-4.75
16.809,-2.14,1.34,-4.60
16.834,-0.64,-1.01,-1.54
16.839,-0.63,-1.07,-1.73
16.844,-0.52,-1.16,-1.89
16.849,-0.28,-1.21,-1.88
16.855,-0.36,-1.32,-1.91
16.859,-0.65,-1.48,-1.69
16.865,-0.87,-1.65,-1.58
16.869,-0.72,-1.99,-1.40
16.874,-0.71,-2.16,-1.17
16.887,-0.51,-2.26,-1.14
16.888,-0.38,-2.35,-0.97
16.890,-0.35,-2.45,-0.76
16.895,-0.21,-2.48,-0.36
16.900,0.16,-2.34,-0.05
16.905,0.44,-2.12,0.32
16.910,0.58,-1.80,0.63
16.915,0.70,-1.39,0.89
16.920,0.90,-0.88,1.09
16.926,1.12,-0.37,1.40
16.930,1.27,-0.10,1.70
16.935,1.27,0.31,1.87
16.944,1.49,0.70,2.25
16.945,1.53,1.11,2.29
16.950,1.63,1.31,2.44
16.955,1.85,1.49,2.35
16.961,1.76,1.73,2.53
16.965,1.75,1.92,2.43
16.970,1.59,1.99,2.40
16.975,1.60,2.02,2.65
16.980,1.65,1.77,2.62
16.985,1.54,1.49,2.89
16.990,1.15,1.39,2.96
16.998,1.01,1.10,3.22
17.012,1.06,0.83,3.20
17.012,1.07,0.54,3.31
17.013,0.95,0.43,3.43
17.015,1.04,0.23,3.53
17.020,1.20,0.04,3.49
17.025,1.22,-0.02,3.25
17.031,1.10,0.03,2.89
17.032,1.02,0.08,2.40
17.035,0.91,-0.03,2.14
17.040,1.24,-0.56,2.41
17.045,1.81,-1.50,3.51
17.051,3.11,-2.74,5.09
17.055,4.65,-4.21,6.09
17.061,5.54,-5.81,5.34
17.066,5.82,-7.27,2.97
17.071,5.24,-8.17,-1.93
17.076,3.65,-8.52,-7.90
17.097,1.27,-8.84,-12.63
17.098,-1.38,-8.76,-13.51
17.099,-3.82,-8.37,-9.63
17.100,-5.56,-8.10,-3.37
17.101,-7.08,-8.04,1.06
17.106,-7.57,-8.29,2.15
17.111,-6.34,-9.30,1.06
17.117,-3.27,-10.22,-0.23
17.121,0.13,-9.89,-0.70
17.126,2.32,-7.99,-0.09
17.131,3.32,-5.47,0.97
17.136,3.77,-2.96,2.07
17.141,3.96,-0.62,3.14
17.146,4.20,1.09,4.15
17.151,4.53,2.61,5.04
17.156,5.01,3.81,5.81
17.161,5.54,4.79,6.23
17.167,6.17,5.46,6.40
17.171,6.62,6.06,6.24
17.177,6.98,6.14,6.00
17.197,7.20,6.05,5.71
17.199,6.92,5.78,5.67
17.200,6.12,5.06,5.66
17.201,5.18,3.90,5.54
17.201,4.32,2.25,5.28
17.207,3.41,0.55,5.26
17.212,2.63,-1.79,4.38
17.217,1.95,-4.55,3.32
17.222,1.75,-7.20,2.89
17.227,1.72,-9.11,2.83
17.232,1.44,-9.43,3.24
17.237,0.89,-8.63,3.73
17.242,0.03,-7.23,3.71
17.247,-1.13,-5.57,3.60
17.252,-2.04,-3.74,3.71
17.257,-2.42,-1.92,3.91
17.262,-2.15,-0.55,4.10
17.268,-1.60,0.34,4.35
17.272,-0.92,0.77,4.51
17.277,-0.16,0.91,4.77
17.286,0.61,0.91,5.00
17.288,1.38,0.73,5.10
17.292,2.05,0.59,4.97
17.301,2.66,0.46,4.60
17.344,3.12,0.24,4.15
17.345,3.35,-0.02,3.84
17.346,3.43,-0.29,3.51
17.348,3.38,-0.59,3.33
17.349,3.13,-0.99,3.30
17.350,2.70,-1.53,3.27
17.351,2.25,-1.93,3.19
17.352,1.83,-2.23,3.17
17.353,1.46,-2.45,3.18
17.354,1.17,-2.52,3.10
17.355,0.86,-2.41,2.95
17.358,0.56,-2.16,2.76
17.363,0.26,-1.91,2.60
17.369,-0.00,-1.64,2.45
17.374,-0.11,-1.32,2.30
17.378,-0.22,-0.99,2.22
17.400,-0.33,-0.63,2.27
17.403,-0.38,-0.34,2.37
17.404,-0.43,-0.11,2.45
17.405,-0.38,0.06,2.53
17.406,-0.29,0.20,2.66
17.408,-0.21,0.34,2.69
17.413,-0.07,0.33,2.62
17.418,0.12,0.30,2.65
17.423,0.33,0.23,2.63
17.428,0.52,0.11,2.61
17.433,0.60,-0.00,2.70
17.438,0.69,-0.08,2.64
17.443,0.80,-0.07,2.53
17.448,0.81,-0.10,2.40
17.453,0.84,-0.18,2.30
17.458,0.88,-0.23,2.18
17.463,0.93,-0.19,2.07
17.468,0.97,-0.21,1.95
17.473,0.94,-0.19,1.88
17.478,0.86,-0.07,1.89
17.485,0.74,-0.05,1.85
17.488,0.66,-0.03,1.85
17.493,0.57,0.01,1.84
17.516,0.47,-0.01,1.80
17.517,0.37,-0.10,1.68
17.518,0.37,-0.15,1.54
17.518,0.39,-0.18,1.46
17.519,0.39,-0.29,1.39
17.524,0.44,-0.29,1.40
17.529,0.52,-0.34,1.40
17.534,0.62,-0.40,1.39
17.539,0.79,-0.38,1.39
17.544,0.98,-0.30,1.41
17.549,1.19,-0.19,1.34
17.554,1.43,-0.19,1.21
17.559,1.59,-0.04,1.06
17.564,1.58,-0.00,0.94
17.569,1.64,0.05,0.81
17.574,1.65,0.21,0.73
17.579,1.73,0.31,0.58
17.585,1.64,0.17,0.30
17.589,1.54,0.16,0.08
17.594,1.44,0.07,-0.21
17.615,1.47,0.02,-0.39
17.616,1.47,-0.05,-0.47
17.617,1.48,-0.14,-0.17
17.617,1.22,-0.19,0.02
17.620,1.16,-0.12,0.24
17.624,1.13,0.08,0.59
17.629,1.08,0.23,0.78
17.634,1.09,0.33,0.61
17.639,0.77,0.25,0.35
17.644,0.53,0.27,0.01
17.650,0.37,0.31,-0.10
17.654,0.09,0.24,-0.19
17.659,-0.07,0.18,-0.15
17.665,-0.25,-0.01,-0.22
17.670,-0.58,-0.16,-0.19
17.675,-0.82,-0.16,-0.17
17.680,-1.08,-0.23,-0.23
17.689,-1.18,-0.22,-0.44
17.690,-1.35,-0.24,-0.81
17.695,-1.49,-0.24,-0.97
17.700,-1.64,-0.44,-1.26
17.732,-1.68,-0.46,-1.31
17.733,-1.77,-0.40,-1.33
17.734,-1.73,-0.36,-1.18
17.734,-1.73,-0.40,-0.94
17.735,-1.64,-0.55,-0.72
17.735,-1.53,-0.55,-0.65
17.735,-1.37,-0.56,-0.57
17.740,-1.10,-0.63,-0.45
17.745,-0.71,-0.72,-0.54
17.750,-0.25,-0.84,-0.67
17.757,0.02,-0.96,-0.81
17.760,0.32,-0.74,-0.80
17.765,0.44,-0.81,-0.78
17.775,0.68,-0.71,-0.63
17.776,0.85,-0.77,-0.39
17.780,1.08,-0.82,-0.19
17.791,1.30,-0.97,-0.31
17.793,1.51,-0.98,-0.43
17.795,1.85,-1.19,-0.49
17.801,2.06,-1.26,-0.70
17.807,2.14,-1.40,-0.72
17.811,2.20,-1.58,-0.70
17.815,2.12,-1.78,-0.61
17.846,2.01,-2.07,-0.67
17.847,1.62,-2.50,-0.88
17.847,1.09,-2.79,-0.93
17.848,0.48,-3.08,-1.02
17.848,-0.06,-3.04,-1.06
17.849,-0.54,-3.02,-1.27
17.850,-0.86,-2.68,-1.17
17.850,-1.18,-2.50,-1.36
17.856,-1.49,-2.21,-1.32
17.861,-1.64,-2.03,-1.40
17.866,-1.65,-1.98,-1.46
17.873,-1.73,-2.11,-1.65
17.876,-1.80,-2.26,-1.96
17.881,-1.95,-2.56,-2.23
17.900,-2.17,-2.88,-2.38
17.901,-2.35,-3.19,-2.45
17.901,-2.61,-3.50,-2.21
17.902,-2.82,-3.84,-1.87
17.906,-2.88,-4.04,-1.33
17.911,-2.65,-4.22,-0.80
17.916,-2.03,-4.11,-0.56
17.921,-1.13,-3.91,-1.19
17.926,-0.02,-3.48,-2.35
17.931,1.04,-3.15,-3.90
17.936,1.99,-2.87,-5.25
17.941,2.78,-2.73,-6.07
17.946,3.21,-2.51,-5.82
17.952,3.46,-2.34,-4.70
17.957,3.27,-2.29,-2.87
17.962,3.03,-2.17,-0.97
17.967,2.71,-2.04,0.73
17.974,2.32,-1.95,2.25
17.977,1.96,-1.91,3.52
17.981,1.64,-1.96,4.86
18.016,1.40,-2.08,5.91
18.018,1.20,-2.27,6.67
18.019,1.05,-2.41,6.92
18.019,0.97,-2.37,6.86
18.020,1.04,-2.24,6.64
18.021,0.81,-2.39,6.08
18.022,0.58,-2.62,5.25
18.023,0.46,-2.77,4.28
18.027,0.56,-2.74,3.42
18.032,0.79,-2.64,2.66
18.037,1.15,-2.45,2.12
18.042,1.67,-2.37,1.99
18.048,2.19,-2.30,2.15
18.052,2.68,-2.22,2.53
18.059,3.00,-2.16,3.08
18.062,3.12,-2.10,3.52
18.067,3.08,-2.05,3.89
18.075,2.96,-2.06,4.32
18.077,2.85,-2.18,4.61
18.082,2.77,-2.25,4.67
18.115,2.58,-2.35,4.63
18.115,2.36,-2.39,4.52
18.116,2.16,-2.32,4.18
18.116,1.96,-2.16,3.87
18.117,1.81,-2.07,3.53
18.117,1.69,-1.86,3.29
18.118,1.60,-1.64,3.25
18.122,1.53,-1.35,3.34
18.127,1.45,-0.98,3.38
18.132,1.46,-0.66,3.49
18.137,1.58,-0.32,3.75
18.143,1.65,-0.10,3.95
18.148,1.80,0.00,4.11
18.152,2.00,0.08,4.24
18.157,2.14,0.06,4.29
18.162,2.16,-0.02,4.34
18.168,2.16,-0.04,4.39
18.174,2.21,-0.11,4.44
18.178,2.23,-0.29,4.52
18.183,2.18,-0.42,4.55
18.223,2.16,-0.43,4.65
18.224,2.15,-0.39,4.76
18.224,2.07,-0.33,4.79
18.226,2.06,-0.23,4.87
18.227,2.07,-0.13,4.94
18.228,2.12,-0.03,4.93
18.229,2.17,0.08,4.87
18.229,2.18,0.24,4.84
18.230,2.28,0.38,4.77
18.233,2.38,0.52,4.63
18.239,2.44,0.67,4.62
18.243,2.53,0.74,4.65
18.248,2.57,0.83,4.64
18.253,2.56,0.95,4.55
18.258,2.49,0.92,4.46
18.263,2.35,0.92,4.36
18.268,2.11,0.93,4.27
18.274,1.94,0.96,4.18
18.280,1.78,0.95,4.00
18.283,1.56,0.83,3.66
18.289,1.54,0.74,3.33
18.305,1.39,0.61,2.95
18.308,1.21,0.47,2.58
18.311,1.09,0.37,2.38
18.312,0.99,0.36,2.18
18.314,1.00,0.29,2.02
18.318,0.98,0.20,1.80
18.323,0.88,0.15,1.47
18.330,0.73,0.17,1.22
18.334,0.64,0.12,0.94
18.339,0.46,0.12,0.57
18.345,0.44,0.18,0.44
18.348,0.36,0.22,0.39
18.354,0.30,0.16,0.41
18.359,0.34,0.16,0.42
18.364,0.41,0.17,0.40
18.369,0.40,0.13,0.32
18.377,0.43,0.08,0.15
18.379,0.38,0.09,0.05
18.384,0.43,0.11,0.08
18.402,0.34,-0.01,0.08
18.403,0.23,-0.06,0.20
18.403,0.14,-0.17,0.15
18.404,0.11,-0.36,0.09
18.409,0.07,-0.45,-0.16
18.414,-0.06,-0.61,-0.41
18.419,-0.23,-0.72,-0.58
18.424,-0.26,-0.80,-0.68
18.429,-0.35,-0.95,-1.12
18.434,-0.52,-1.07,-1.37
18.440,-0.51,-1.22,-1.57
18.445,-0.54,-1.33,-1.56
18.449,-0.47,-1.45,-1.53
18.454,-0.47,-1.60,-1.40
18.459,-0.51,-1.68,-1.23
18.464,-0.64,-1.79,-0.88
18.470,-0.65,-1.82,-0.49
18.480,-0.61,-1.95,-0.12
18.718,-0.55,-2.01,0.13
18.719,-0.24,-2.00,0.18
18.719,0.08,-1.91,0.13
18.720,0.56,-1.71,0.00
18.720,0.83,-1.42,0.08
18.721,1.16,-1.15,0.44
18.722,1.36,-0.68,0.75
18.722,1.49,-0.29,1.04
18.723,1.55,-0.00,1.27
18.724,1.62,0.30,1.54
18.724,1.51,0.48,1.63
18.725,1.65,0.61,1.91
18.725,1.70,0.76,1.95
18.725,1.85,0.81,2.11
18.726,1.92,0.74,2.04
18.726,1.94,0.76,2.10
18.726,2.03,0.81,2.08
18.727,1.99,0.65,2.20
18.727,1.96,0.61,2.33
18.727,1.70,0.58,2.27
18.728,1.55,0.43,2.31
18.728,1.45,0.33,2.34
18.728,1.03,0.33,2.58
18.728,0.66,0.18,2.88
18.729,0.42,0.03,3.11
18.729,0.08,-0.21,3.47
18.729,-0.30,-0.59,3.69
18.730,-0.41,-1.27,4.24
18.730,-0.08,-1.98,4.76
18.730,-0.07,-2.69,5.42
18.731,0.35,-3.44,5.69
18.731,0.84,-4.07,4.86
18.732,1.29,-4.79,3.12
18.732,1.50,-5.10,0.56
18.733,1.44,-4.94,-2.76
18.734,1.10,-4.59,-5.82
18.734,0.42,-4.49,-7.43
18.735,-0.11,-5.01,-7.40
18.735,-0.55,-5.76,-5.54
18.736,-0.80,-6.31,-3.01
18.736,-0.66,-6.67,-1.22
18.737,-0.18,-6.80,0.02
18.738,1.14,-7.73,0.73
18.738,1.28,-7.19,1.73
18.739,1.65,-6.44,1.29
18.739,2.16,-5.14,0.59
18.740,2.19,-3.44,0.29
18.740,2.24,-1.89,0.63
18.740,2.01,-0.37,1.98
18.741,2.10,0.92,3.70
18.741,2.38,1.84,4.97
18.742,3.10,2.47,5.49
18.742,3.85,3.10,5.83
18.743,4.43,3.51,5.80
18.747,4.80,3.70,5.52
18.751,4.94,3.85,5.23
18.756,4.93,3.82,4.91
18.761,4.61,3.68,4.65
18.766,4.59,3.61,4.39
18.771,3.73,2.90,4.28
18.796,2.84,1.96,3.94
18.797,1.85,0.71,3.68
18.798,1.01,-0.55,3.43
18.798,0.28,-1.93,3.18
18.801,-0.27,-3.20,3.06
18.802,-0.69,-4.33,2.92
18.807,-0.87,-5.01,2.87
18.813,-0.95,-5.27,2.98
18.816,-0.97,-5.07,3.13
18.821,-1.28,-4.61,3.29
18.850,-1.71,-3.88,3.49
18.851,-2.23,-2.91,3.54
18.851,-2.43,-1.79,3.54
18.852,-2.35,-0.79,3.58
18.853,-2.14,0.07,3.73
18.854,-1.87,0.65,3.90
18.857,-1.52,1.07,4.09
18.862,-1.09,1.27,4.25
18.867,-0.61,1.27,4.29
18.872,-0.19,1.18,4.21
18.879,0.21,1.06,4.10
18.882,0.65,0.78,3.85
18.887,1.20,0.42,3.50
18.892,1.64,0.10,3.04
18.904,2.05,-0.18,2.57
18.905,2.42,-0.46,2.16
18.907,2.71,-0.78,1.83
18.912,2.89,-1.03,1.64
18.917,3.00,-1.18,1.57
18.922,3.07,-1.28,1.62
18.927,2.96,-1.28,1.72
18.932,2.74,-1.18,1.90
18.937,2.51,-1.07,2.04
18.942,2.22,-0.84,2.14
18.947,1.88,-0.56,2.10
18.952,1.55,-0.25,2.00
18.957,1.33,0.02,1.98
18.963,1.06,0.18,1.98
18.967,0.79,0.33,2.00
18.972,0.54,0.42,2.11
18.977,0.28,0.44,2.26
18.983,0.09,0.37,2.26
18.988,-0.01,0.29,2.20
18.992,-0.08,0.22,2.12
18.999,-0.13,0.13,2.03
19.003,-0.21,-0.09,1.85
19.008,-0.30,-0.34,1.63
19.030,-0.38,-0.47,1.48
19.031,-0.48,-0.47,1.36
19.032,-0.51,-0.42,1.30
19.033,-0.51,-0.48,1.33
19.033,-0.55,-0.43,1.36
19.038,-0.59,-0.27,1.43
19.043,-0.64,-0.18,1.57
19.048,-0.69,-0.11,1.64
19.053,-0.69,-0.04,1.54
19.058,-0.70,-0.02,1.42
19.063,-0.63,-0.10,1.36
19.068,-0.49,-0.06,1.33
19.073,-0.36,-0.02,1.29
19.079,-0.18,-0.09,1.21
19.085,-0.01,-0.15,1.18
19.088,0.15,-0.11,1.12
19.093,0.30,-0.10,1.02
19.098,0.57,-0.16,0.97
19.103,0.78,-0.21,0.99
19.108,0.85,-0.24,1.02
19.117,0.93,-0.23,1.02
19.118,1.02,-0.19,0.94
19.123,1.12,-0.15,0.86
19.128,1.28,-0.16,0.83
19.154,1.47,-0.11,0.66
19.155,1.66,0.01,0.51
19.156,1.69,0.04,0.40
19.156,1.76,0.03,0.18
19.158,1.94,0.02,0.01
19.159,1.98,0.10,-0.10
19.163,1.95,0.06,-0.10
19.169,1.75,-0.04,-0.20
19.174,1.56,-0.01,-0.16
19.179,1.48,0.02,-0.19
19.184,1.33,0.05,-0.19
19.189,1.30,0.12,-0.19
19.194,1.19,0.12,-0.19
19.199,1.06,0.26,-0.29
19.204,0.87,0.36,-0.30
19.209,0.76,0.29,-0.26
19.215,0.66,0.16,-0.27
19.219,0.43,0.01,-0.27
19.224,0.07,-0.08,-0.30
19.250,-0.34,-0.26,-0.34
19.251,-0.63,-0.30,-0.57
19.252,-0.94,-0.37,-0.69
19.252,-1.27,-0.47,-0.81
19.253,-1.54,-0.44,-1.01
19.254,-1.67,-0.27,-1.22
19.259,-1.75,-0.20,-1.36
19.264,-1.79,-0.17,-1.37
19.269,-1.75,-0.18,-1.41
19.274,-1.59,-0.26,-1.34
19.280,-1.57,-0.28,-1.34
19.285,-1.39,-0.26,-1.30
19.289,-1.20,-0.30,-1.21
19.294,-1.11,-0.34,-1.09
19.299,-1.03,-0.44,-0.96
19.305,-0.99,-0.53,-0.78
19.310,-1.05,-0.59,-0.53
19.316,-1.05,-0.56,-0.46
19.320,-0.97,-0.60,-0.31
19.324,-0.89,-0.66,-0.08
19.330,-0.84,-0.63,-0.07
19.348,-0.74,-0.66,-0.09
19.349,-0.45,-0.62,0.05
19.349,-0.15,-0.59,-0.09
19.350,0.14,-0.67,0.11
19.355,0.44,-0.75,0.07
19.360,0.72,-0.79,0.06
19.365,1.04,-1.00,0.06
19.370,1.40,-1.00,-0.11
19.375,1.76,-1.02,-0.45
19.381,2.00,-1.14,-0.73
19.385,2.19,-1.29,-0.88
19.390,2.10,-1.43,-1.17
19.395,2.00,-1.57,-1.21
19.401,1.63,-1.77,-1.24
19.405,1.16,-1.81,-1.12
19.410,0.57,-1.83,-1.16
19.433,0.14,-1.87,-1.12
19.435,-0.28,-1.77,-1.14
19.435,-0.77,-1.71,-1.16
19.436,-1.17,-1.77,-1.17
19.436,-1.49,-1.58,-1.06
19.440,-1.72,-1.62,-1.18
19.445,-1.96,-1.69,-1.11
19.450,-2.17,-1.97,-1.11
19.456,-2.48,-2.17,-1.12
19.460,-2.74,-2.39,-1.13
19.466,-3.00,-2.55,-0.92
19.467,-3.36,-2.64,-0.65
19.471,-3.55,-2.75,-0.26
19.476,-3.83,-2.84,0.04
19.481,-3.86,-3.00,-0.13
19.486,-3.88,-3.06,-0.59
19.491,-3.56,-3.14,-1.02
19.496,-2.94,-3.21,-1.74
19.503,-2.05,-3.24,-2.56
19.506,-0.82,-3.15,-3.32
19.511,0.49,-2.94,-4.04
19.526,1.76,-2.62,-4.67
19.527,2.71,-2.20,-5.00
19.528,3.31,-1.89,-5.07
19.532,3.59,-1.64,-4.91
19.536,3.68,-1.45,-4.62
19.541,3.63,-1.25,-3.90
19.546,3.47,-1.13,-2.90
19.551,3.16,-1.15,-1.92
19.556,2.95,-1.14,-0.76
19.561,2.73,-1.18,0.38
19.566,2.55,-1.10,1.32
19.572,2.39,-1.29,2.06
19.577,2.36,-1.38,2.72
19.582,2.26,-1.55,3.30
19.587,2.13,-1.72,3.93
19.591,2.02,-1.72,4.59
19.597,2.02,-1.65,5.14
19.602,1.88,-1.47,5.24
19.606,1.58,-1.39,5.16
19.611,1.33,-1.21,5.08
19.635,1.22,-1.14,4.86
19.636,1.10,-1.05,4.61
19.637,0.97,-0.96,4.25
19.638,1.02,-0.94,3.87
19.638,0.90,-1.00,3.52
19.642,0.68,-1.17,2.93
19.647,0.53,-1.44,2.41
19.652,0.41,-1.60,1.85
19.657,0.36,-1.83,1.42
19.662,0.35,-1.98,1.13
19.667,0.42,-2.09,0.99
19.672,0.49,-2.02,1.24
19.677,0.72,-1.96,1.73
19.682,1.04,-1.92,2.10
19.687,1.34,-1.80,2.48
19.692,1.55,-1.65,2.78
19.697,1.76,-1.50,2.93
19.702,1.83,-1.25,2.89
19.707,1.86,-0.85,2.79
19.712,1.83,-0.55,2.45
19.731,1.77,-0.28,2.16
19.732,1.72,-0.04,2.07
19.733,1.62,0.04,2.09
19.733,1.56,0.07,2.19
19.738,1.51,0.05,2.44
19.742,1.44,-0.03,2.63
19.750,1.43,-0.08,2.76
19.752,1.43,-0.15,2.91
19.758,1.44,-0.23,2.95
19.763,1.43,-0.30,2.93
19.768,1.35,-0.28,2.88
19.772,1.32,-0.24,2.81
19.778,1.31,-0.19,2.75
19.783,1.26,-0.08,2.76
19.788,1.20,0.04,2.83
19.792,1.21,0.10,2.90
19.798,1.21,0.16,2.99
19.806,1.22,0.27,3.13
19.808,1.27,0.31,3.26
19.813,1.24,0.31,3.27
19.848,1.25,0.35,3.23
19.849,1.37,0.30,3.22
19.849,1.53,0.25,3.20
19.850,1.77,0.28,3.20
19.850,2.01,0.28,3.19
19.851,2.23,0.28,3.19
19.852,2.44,0.32,3.13
19.853,2.56,0.42,3.08
19.859,2.55,0.53,3.03
19.866,2.52,0.57,2.92
19.869,2.46,0.57,2.81
19.874,2.34,0.62,2.70
19.878,2.19,0.67,2.56
19.884,2.04,0.66,2.39
19.889,1.97,0.70,2.11
19.896,1.81,0.76,1.90
19.898,1.66,0.80,1.83
19.906,1.61,0.79,1.74
19.908,1.49,0.77,1.68
19.913,1.35,0.86,1.61
19.919,1.18,0.86,1.63
19.930,1.06,0.80,1.48
19.932,0.98,0.83,1.33
19.933,0.81,0.88,1.20
19.939,0.62,0.91,1.16
19.943,0.56,0.90,1.22
19.948,0.41,0.89,1.29
19.957,0.37,1.00,1.20
19.959,0.31,1.01,1.09
19.964,0.19,0.98,0.89
19.969,0.22,0.98,0.61
19.974,0.18,0.91,0.34
19.979,0.19,0.83,0.09
19.987,0.18,0.74,-0.25
19.989,0.07,0.65,-0.49
19.994,0.08,0.57,-0.75
19.999,0.03,0.49,-0.88
20.006,-0.00,0.43,-0.88
20.009,-0.01,0.38,-0.90
20.018,-0.11,0.23,-0.85
20.046,-0.29,0.10,-0.89
20.048,-0.34,0.02,-0.89
20.049,-0.43,-0.11,-1.04
20.050,-0.67,-0.19,-1.30
20.051,-0.76,-0.31,-1.62
20.051,-0.95,-0.41,-2.19
20.052,-1.31,-0.53,-2.68
20.054,-1.51,-0.58,-2.95
20.059,-1.55,-0.81,-3.02
20.065,-1.50,-1.02,-3.08
20.070,-1.55,-1.19,-2.83
20.077,-1.69,-1.30,-2.59
20.079,-1.70,-1.54,-2.25
20.084,-1.72,-1.69,-1.81
20.089,-1.68,-2.00,-1.50
20.094,-1.77,-2.17,-1.30
20.099,-1.42,-1.96,-0.96
20.109,-1.03,-2.06,-0.92
20.111,-0.78,-2.09,-1.10
20.115,-0.65,-2.05,-1.40
20.120,-0.68,-2.18,-1.57
20.136,-0.20,-1.85,-1.30
20.137,0.08,-1.37,-0.99
20.149,0.26,-0.90,-0.59
20.150,0.67,-0.25,-0.31
20.150,0.84,0.26,-0.09
20.150,0.97,0.65,0.25
20.155,0.98,0.85,0.66
20.160,1.07,1.03,1.23
20.165,1.24,1.26,1.55
20.170,1.32,1.56,1.89
20.175,1.20,1.84,1.83
20.180,0.99,2.04,1.69
20.185,0.97,2.33,1.85
20.191,1.09,2.43,2.24
20.195,1.09,2.50,2.53
20.200,1.38,2.33,2.99
20.223,1.98,2.02,3.39
20.224,2.61,1.40,3.67
20.224,3.29,0.83,3.71
20.225,3.77,-0.03,3.71
20.226,4.15,-0.34,3.53
20.230,4.18,-1.33,2.90
20.235,4.13,-2.76,2.50
20.240,3.51,-3.71,1.87
20.245,2.86,-4.53,1.12
20.251,2.00,-4.95,0.27
20.255,0.79,-5.11,-0.77
20.261,-0.37,-5.22,-1.70
20.266,-1.49,-5.14,-1.99
20.271,-2.34,-5.45,-1.95
20.277,-2.77,-5.73,-1.78
20.278,-2.68,-5.93,-1.52
20.281,-2.03,-6.07,-1.01
20.286,-1.48,-6.57,-0.88
20.291,-0.68,-6.83,-0.38
20.299,-0.31,-7.58,0.20
20.301,0.17,-7.24,1.20
20.339,0.76,-6.52,2.51
20.340,1.05,-4.60,3.13
20.340,1.35,-2.26,3.36
20.341,1.69,-0.17,3.69
20.341,2.07,1.39,3.88
20.342,2.29,2.38,4.31
20.342,2.72,2.95,4.55
20.342,3.00,3.18,4.68
20.346,3.12,3.12,4.86
20.351,3.35,2.93,4.87
20.356,3.54,2.68,4.80
20.361,3.71,2.24,4.48
20.366,3.78,2.18,4.61
20.371,3.57,1.58,4.30
20.376,2.97,0.71,3.86
20.381,2.42,-0.11,3.45
20.386,1.67,-1.19,3.14
20.397,1.04,-2.10,2.81
20.398,0.53,-2.58,2.76
20.402,-0.11,-2.93,2.51
20.449,-0.50,-3.29,2.26
20.451,-1.08,-3.23,2.17
20.452,-1.42,-2.93,2.26
20.453,-1.76,-2.49,2.19
20.453,-1.84,-2.10,2.22
20.454,-1.97,-1.56,2.36
20.455,-1.99,-1.15,2.55
20.456,-2.05,-0.71,2.74
20.456,-1.91,-0.37,2.88
20.457,-1.56,-0.12,2.99
20.458,-1.19,-0.01,3.08
20.462,-0.81,0.10,3.12
20.467,-0.51,0.19,3.10
20.472,-0.23,0.09,2.87
20.477,-0.03,0.02,2.67
20.482,0.23,0.03,2.45
20.487,0.50,-0.07,2.16
20.494,0.76,-0.25,1.94
20.497,1.04,-0.53,1.73
20.502,1.29,-0.82,1.62
20.550,1.46,-1.08,1.54
20.551,1.55,-1.21,1.52
20.552,1.57,-1.25,1.53
20.553,1.52,-1.16,1.62
20.553,1.45,-1.08,1.64
20.554,1.47,-0.94,1.60
20.555,1.42,-0.78,1.63
20.556,1.28,-0.52,1.64
20.556,1.16,-0.25,1.57
20.557,1.02,-0.11,1.50
20.558,0.87,-0.06,1.52
20.562,0.80,-0.07,1.56
20.567,0.80,-0.18,1.58
20.572,0.80,-0.30,1.50
20.577,0.71,-0.45,1.49
20.583,0.63,-0.61,1.43
20.588,0.55,-0.73,1.34
20.596,0.45,-0.78,1.23
20.598,0.35,-0.81,1.17
20.603,0.29,-0.89,1.13
20.641,0.25,-0.95,1.00
20.643,0.15,-0.98,0.89
20.644,-0.01,-1.01,0.77
20.644,-0.14,-0.92,0.66
20.646,-0.23,-0.77,0.65
20.646,-0.35,-0.65,0.58
20.647,-0.49,-0.50,0.54
20.647,-0.62,-0.42,0.61
20.648,-0.71,-0.36,0.69
20.653,-0.68,-0.28,0.71
20.658,-0.57,-0.27,0.75
20.663,-0.36,-0.32,0.91
20.668,-0.14,-0.32,1.05
20.673,0.04,-0.33,1.11
20.678,0.27,-0.38,1.14
20.683,0.52,-0.44,1.18
20.688,0.81,-0.44,1.20
20.695,1.09,-0.43,1.12
20.699,1.33,-0.45,0.95
20.704,1.52,-0.50,0.79
20.748,1.67,-0.55,0.70
20.749,1.67,-0.58,0.63
20.750,1.63,-0.58,0.65
20.750,1.54,-0.55,0.64
20.751,1.43,-0.47,0.66
20.751,1.29,-0.35,0.62
20.752,1.12,-0.27,0.63
20.753,0.98,-0.17,0.64
20.753,0.88,-0.17,0.50
20.754,0.76,-0.21,0.59
20.759,0.63,-0.20,0.70
20.764,0.51,-0.10,0.77
20.769,0.43,-0.10,0.89
20.774,0.40,-0.14,1.03
20.779,0.40,-0.24,0.91
20.784,0.35,-0.32,0.82
20.789,0.31,-0.41,0.75
20.799,0.21,-0.42,0.67
20.811,0.17,-0.45,0.62
20.813,0.15,-0.58,0.52
20.814,0.15,-0.51,0.57
20.815,0.16,-0.37,0.56
20.819,0.18,-0.39,0.57
20.824,0.22,-0.39,0.50
20.853,0.21,-0.33,0.43
20.855,0.28,-0.29,0.33
20.856,0.33,-0.32,0.32
20.857,0.30,-0.28,0.22
20.858,0.32,-0.23,0.28
20.859,0.31,-0.29,0.29
20.861,0.30,-0.33,0.35
20.865,0.37,-0.29,0.37
20.869,0.38,-0.31,0.39
20.874,0.44,-0.34,0.47
20.880,0.38,-0.33,0.41
20.884,0.39,-0.38,0.42
20.890,0.46,-0.40,0.54
20.897,0.55,-0.35,0.55
20.900,0.48,-0.26,0.49
20.904,0.54,-0.21,0.51
20.941,0.64,-0.21,0.44
20.942,0.71,-0.22,0.37
20.943,0.74,-0.34,0.35
20.944,0.63,-0.46,0.39
20.944,0.61,-0.43,0.40
20.945,0.57,-0.52,0.40
20.946,0.55,-0.46,0.43
20.946,0.46,-0.57,0.42
20.950,0.44,-0.53,0.40
20.955,0.34,-0.59,0.43
20.960,0.27,-0.59,0.37
20.965,0.19,-0.60,0.41
20.970,0.10,-0.62,0.37
20.975,0.03,-0.78,0.52
20.980,-0.06,-0.61,0.56
20.985,-0.03,-0.69,0.54
20.990,-0.02,-0.80,0.42
20.995,0.02,-0.71,0.59
21.000,0.10,-0.74,0.51
21.005,0.23,-0.65,0.54
21.011,0.43,-0.53,0.62
21.025,0.63,-0.31,0.75
21.026,0.63,-0.15,0.95
21.027,0.72,-0.14,1.04
21.031,0.73,0.03,1.08
21.035,0.64,0.17,1.10
21.040,0.63,0.30,1.16
21.045,0.67,0.40,1.29
21.050,0.50,0.36,1.38
21.055,0.43,0.43,1.32
21.061,0.45,0.32,1.27
21.065,0.33,0.23,1.16
21.070,0.30,0.05,1.24
21.076,0.07,-0.15,1.18
21.081,0.05,-0.27,1.13
21.086,-0.02,-0.32,0.98
21.087,-0.14,-0.52,0.97
21.091,-0.19,-0.56,0.88
21.099,-0.20,-0.61,0.73
21.101,-0.21,-0.59,0.67
21.106,-0.29,-0.49,0.69
21.111,-0.34,-0.35,0.57
21.147,-0.36,-0.33,0.43
21.148,-0.43,-0.14,0.34
21.149,-0.38,-0.17,0.20
21.149,-0.42,-0.18,0.15
21.150,-0.39,-0.03,0.16
21.150,-0.24,-0.17,0.11
21.151,-0.19,-0.24,0.14
21.151,-0.04,-0.27,0.19
21.156,0.03,-0.24,0.27
21.161,0.15,-0.35,0.27
21.166,0.17,-0.40,0.40
21.171,0.21,-0.36,0.35
21.176,0.31,-0.40,0.51
21.181,0.36,-0.33,0.62
21.186,0.31,-0.31,0.58
21.192,0.35,-0.27,0.60
21.200,0.47,-0.25,0.53
21.203,0.40,-0.29,0.56
21.206,0.44,-0.19,0.46
21.247,0.55,-0.17,0.39
21.248,0.59,-0.22,0.44
21.249,0.61,-0.29,0.37
21.251,0.67,-0.26,0.25
21.251,0.66,-0.27,0.25
21.252,0.66,-0.30,0.31
21.253,0.67,-0.38,0.28
21.254,0.63,-0.40,0.23
21.254,0.68,-0.31,0.22
21.257,0.76,-0.31,0.22
21.262,0.74,-0.35,0.28
21.267,0.65,-0.43,0.21
21.272,0.50,-0.45,0.28
21.277,0.47,-0.41,0.23
21.282,0.42,-0.36,0.19
21.287,0.26,-0.33,0.13
21.292,0.17,-0.41,0.23
21.301,0.11,-0.41,0.21
21.302,0.05,-0.45,0.16
21.307,0.00,-0.50,0.26
21.312,0.03,-0.57,0.40
21.334,0.11,-0.64,0.51
21.335,0.17,-0.66,0.59
21.335,0.23,-0.55,0.58
21.336,0.29,-0.45,0.55
21.337,0.22,-0.34,0.38
21.342,0.23,-0.16,0.26
21.347,0.19,0.06,0.21
21.352,0.09,0.23,0.12
21.357,0.04,0.34,0.00
21.362,0.10,0.32,-0.05
21.367,0.18,0.21,-0.04
21.372,0.36,0.06,-0.02
21.377,0.59,-0.24,0.03
21.383,0.73,-0.52,0.07
21.388,0.73,-0.70,0.10
21.393,0.57,-0.77,0.15
21.400,0.45,-0.74,0.17
21.403,0.43,-0.68,0.21
21.408,0.48,-0.68,0.30
21.413,0.61,-0.80,0.45
21.432,0.72,-0.87,0.54
21.433,0.73,-0.78,0.50
21.434,0.63,-0.52,0.49
21.434,0.53,-0.28,0.48
21.438,0.50,-0.14,0.43
21.443,0.49,-0.06,0.46
21.448,0.47,-0.07,0.45
21.453,0.36,-0.00,0.43
21.458,0.28,0.10,0.42
21.463,0.32,0.05,0.36
21.468,0.31,-0.04,0.33
21.473,0.24,-0.13,0.29
21.478,0.24,-0.22,0.24
21.483,0.22,-0.18,0.13
21.488,0.10,-0.12,-0.03
21.493,-0.06,0.03,-0.14
21.500,-0.13,0.30,-0.27
21.503,-0.10,0.42,-0.44
21.510,0.08,0.20,-0.52
21.513,0.27,-0.05,-0.46
21.542,0.39,-0.36,-0.38
21.543,0.50,-0.57,-0.28
21.543,0.52,-0.76,-0.12
21.544,0.58,-0.96,0.02
21.544,0.63,-1.06,0.18
21.544,0.43,-0.94,0.20
21.548,0.30,-0.80,0.19
21.553,0.20,-0.64,0.25
21.558,0.21,-0.52,0.25
21.563,0.25,-0.54,0.24
21.569,0.34,-0.52,0.26
21.574,0.44,-0.38,0.25
21.579,0.49,-0.24,0.19
21.584,0.57,-0.22,0.08
21.589,0.63,-0.24,0.06
21.593,0.63,-0.15,0.07
21.600,0.75,-0.21,0.02
21.604,0.80,-0.39,0.03
21.609,0.86,-0.61,0.09
21.614,0.98,-0.80,0.15
21.629,1.09,-0.78,0.18
21.630,0.99,-0.57,0.18
21.631,0.92,-0.40,0.11
21.635,0.94,-0.49,-0.02
21.639,0.94,-0.50,-0.14
21.644,1.01,-0.58,-0.26
21.649,1.02,-0.64,-0.34
21.654,0.93,-0.60,-0.40
21.659,0.78,-0.57,-0.51
21.664,0.54,-0.53,-0.54
21.669,0.37,-0.41,-0.56
21.674,0.14,-0.16,-0.47
21.679,-0.04,0.17,-0.31
21.684,-0.30,0.44,-0.31
21.689,-0.60,0.67,-0.22
21.694,-0.80,0.84,-0.26
21.701,-0.98,0.87,-0.24
21.704,-0.83,0.62,-0.26
21.709,-0.69,0.40,-0.07
21.719,-0.62,0.23,0.12
21.719,-0.36,0.06,0.28
21.733,-0.22,-0.14,0.35
21.734,-0.21,-0.37,0.41
21.735,-0.10,-0.57,0.42
21.740,-0.06,-0.50,0.46
21.745,-0.19,-0.44,0.62
21.750,-0.29,-0.43,0.69
21.755,-0.35,-0.38,0.45
21.760,-0.59,-0.32,0.22
21.765,-0.73,-0.15,0.26
21.770,-0.79,-0.20,0.28
21.775,-0.79,-0.31,-0.01
21.780,-0.89,-0.37,-0.05
21.785,-0.98,-0.18,-0.06
21.790,-0.90,0.11,-0.19
21.795,-0.61,0.04,-0.28
21.800,-0.55,-0.07,-0.32
21.807,-0.29,-0.19,-0.37
21.810,-0.14,-0.22,-0.32
21.815,0.02,-0.18,-0.35
21.859,0.08,-0.32,-0.31
21.860,0.17,-0.39,-0.39
21.861,0.43,-0.45,-0.29
21.861,0.60,-0.62,-0.44
21.862,0.55,-0.54,-0.62
21.862,0.70,-0.49,-0.93
21.863,1.02,-0.62,-0.84
21.864,0.93,-0.51,-0.55
21.864,0.95,-0.39,-0.57
21.865,1.04,-0.36,-0.85
21.870,1.25,-0.38,-0.83
21.876,1.30,-0.29,-0.63
21.880,1.18,-0.32,-0.35
21.886,1.02,0.07,-0.11
21.886,1.00,0.79,0.24
21.890,0.93,1.00,0.43
21.895,0.84,0.86,0.87
21.903,0.44,0.93,1.02
21.906,0.25,1.03,1.11
21.910,-0.06,1.05,1.12
21.916,-0.45,1.22,1.38
21.930,-0.87,1.23,1.25
21.932,-1.11,1.09,1.37
21.933,-1.19,0.73,1.28
21.937,-1.29,0.27,1.33
21.941,-1.41,-0.11,1.30
21.946,-1.56,-0.46,1.38
21.951,-1.61,-1.04,1.34
21.956,-1.84,-1.45,1.43
21.961,-1.63,-1.97,1.47
21.966,-1.45,-2.29,1.67
21.971,-1.25,-2.42,1.66
21.976,-0.87,-2.49,1.59
21.981,-0.12,-2.31,1.28
21.986,0.65,-2.06,0.89
21.991,1.40,-1.79,0.49
21.996,2.07,-1.46,0.02
22.006,2.66,-1.22,-0.93
22.007,3.29,-1.10,-2.46
22.011,3.57,-0.79,-3.34
22.016,3.63,-0.60,-3.19
22.039,3.46,-0.34,-2.58
22.041,3.33,-0.42,-1.64
22.042,2.96,-0.11,-1.01
22.043,2.62,0.11,-0.56
22.043,2.22,0.25,-0.40
22.047,1.73,0.38,-0.36
22.052,1.32,0.47,-0.30
22.057,0.86,0.50,-0.22
22.062,0.33,0.69,0.01
22.066,-0.07,0.98,0.20
22.072,-0.46,1.16,0.40
22.077,-0.71,1.21,0.54
22.082,-0.82,1.03,0.86
22.087,-0.93,0.86,0.94
22.092,-0.96,0.70,1.11
22.097,-0.88,0.35,1.23
22.102,-0.73,-0.02,1.20
22.107,-0.54,-0.39,1.22
22.112,-0.38,-0.78,1.17
22.117,-0.21,-1.07,1.12
22.150,-0.17,-1.21,1.03
22.151,-0.14,-1.19,0.96
22.152,-0.27,-0.97,0.89
22.152,-0.45,-0.54,0.98
22.153,-0.49,-0.11,0.87
22.153,-0.73,0.38,0.47
22.154,-1.23,0.55,-0.12
22.157,-1.52,0.32,-0.65
22.162,-1.54,-0.08,-1.03
22.167,-1.47,-0.49,-1.22
22.172,-1.40,-0.79,-1.34
22.177,-1.26,-0.97,-1.35
22.182,-1.09,-0.94,-1.11
22.187,-1.01,-0.66,-0.84
22.193,-0.90,-0.32,-0.57
22.197,-0.82,-0.03,-0.34
22.203,-0.77,0.22,-0.28
22.208,-0.50,0.26,-0.30
22.213,-0.16,0.13,-0.34
22.218,0.21,-0.01,-0.33
22.247,0.64,-0.23,-0.31
22.249,0.93,-0.54,-0.18
22.250,1.15,-0.80,0.09
22.251,1.34,-0.97,0.34
22.252,1.42,-1.04,0.53
22.253,1.29,-0.99,0.69
22.254,1.11,-0.72,0.82
22.258,1.11,-0.27,0.78
22.263,1.19,0.03,0.70
22.268,1.27,0.15,0.58
22.273,1.26,0.17,0.38
22.278,1.09,0.09,0.39
22.283,0.80,-0.09,0.52
22.288,0.54,-0.34,0.59
22.293,0.35,-0.47,0.69
22.299,0.16,-0.40,0.70
22.303,-0.13,-0.30,0.67
22.309,-0.26,-0.19,0.69
22.313,-0.22,-0.16,0.66
22.318,-0.17,-0.19,0.49
22.346,-0.04,-0.19,0.30
22.347,0.10,-0.17,0.12
22.348,0.18,-0.13,-0.04
22.349,0.14,0.02,-0.23
22.350,0.09,0.20,-0.37
22.351,0.13,0.27,-0.48
22.353,0.21,0.23,-0.48
22.358,0.32,0.13,-0.45
22.363,0.35,0.04,-0.39
22.368,0.29,-0.14,-0.23
22.373,0.22,-0.14,-0.03
22.379,0.06,-0.03,0.14
22.383,-0.08,0.10,0.26
22.388,-0.11,0.10,0.35
22.395,-0.07,0.04,0.46
22.399,-0.05,-0.08,0.56
22.404,-0.01,-0.33,0.52
22.411,0.16,-0.67,0.52
22.414,0.31,-0.93,0.42
22.420,0.43,-1.22,0.37
22.446,0.47,-1.24,0.22
22.448,0.34,-1.01,0.35
22.449,0.22,-0.69,0.37
22.450,0.14,-0.51,0.29
22.451,0.05,-0.28,0.16
22.452,-0.10,-0.11,-0.03
22.454,-0.20,0.03,-0.06
22.459,-0.29,0.15,-0.11
22.464,-0.38,0.25,-0.10
22.469,-0.61,0.39,-0.04
22.474,-0.63,0.22,-0.12
22.479,-0.53,0.08,-0.19
22.484,-0.47,0.03,-0.22
22.489,-0.42,-0.16,-0.18
22.495,-0.27,-0.30,-0.09
22.500,-0.34,-0.09,0.22
22.505,-0.46,0.10,0.42
22.511,-0.34,-0.08,0.27
22.515,-0.32,-0.18,0.34
22.520,-0.14,-0.49,0.03
22.562,0.14,-0.72,0.01
22.563,0.35,-0.93,0.01
22.564,0.37,-0.85,-0.04
22.564,0.28,-0.61,-0.04
22.565,0.11,-0.57,-0.12
22.565,0.20,-0.60,0.03
22.566,0.11,-0.57,0.03
22.566,0.12,-0.59,0.17
22.567,0.14,-0.52,-0.04
22.570,-0.02,-0.34,0.03
22.575,-0.05,-0.35,0.08
22.580,-0.03,-0.22,0.10
22.585,0.03,-0.27,0.06
22.591,0.14,-0.21,-0.00
22.595,0.13,-0.34,0.05
22.600,0.20,-0.34,0.06
22.605,0.33,-0.29,-0.09
22.611,0.49,-0.46,-0.13
22.615,0.48,-0.47,-0.13
22.620,0.52,-0.41,-0.21
22.628,0.50,-0.43,-0.15
22.631,0.29,-0.18,-0.11
22.635,0.18,-0.15,-0.22
22.640,0.12,-0.22,-0.20
22.672,0.11,-0.10,-0.21
22.673,0.15,-0.14,-0.25
22.674,-0.04,-0.12,-0.05
22.674,-0.15,-0.03,0.06
22.674,-0.06,-0.06,0.08
22.675,-0.01,-0.01,0.05
22.679,-0.07,-0.19,-0.03
22.680,-0.07,-0.14,0.08
22.685,0.02,-0.14,0.08
22.696,0.08,-0.26,0.05
22.697,-0.01,-0.21,0.03
22.697,0.07,-0.29,0.10
22.701,0.10,-0.32,0.17
22.705,0.13,-0.41,0.22
22.714,0.13,-0.41,0.12
22.716,0.16,-0.49,0.23
22.721,0.09,-0.61,0.34
22.759,0.18,-0.63,0.22
22.760,0.30,-0.90,0.22
22.761,0.35,-0.87,0.08
22.762,0.51,-0.82,0.05
22.762,0.51,-0.75,0.16
22.763,0.55,-0.68,0.16
22.763,0.59,-0.75,0.11
22.764,0.52,-0.62,0.10
22.766,0.51,-0.63,-0.07
22.771,0.51,-0.57,-0.13
22.776,0.56,-0.45,-0.16
22.781,0.34,-0.45,-0.14
22.786,0.34,-0.54,-0.23
22.791,0.46,-0.54,-0.15
22.796,0.65,-0.71,-0.20
22.801,0.75,-0.72,-0.13
22.806,0.68,-0.88,-0.05
22.811,0.59,-0.93,0.07
22.817,0.54,-1.10,0.22
22.822,0.56,-0.94,0.39
22.830,0.34,-0.78,0.59
22.832,0.12,-0.64,0.62
22.836,0.06,-0.48,0.40
22.841,0.05,-0.34,0.24
22.877,-0.00,-0.25,0.21
22.879,-0.12,-0.27,0.14
22.879,-0.02,-0.39,0.05
22.880,0.05,-0.43,0.08
22.881,0.09,-0.46,0.13
22.881,0.03,-0.62,0.09
22.882,0.01,-0.70,0.00
22.883,0.11,-0.68,-0.04
22.887,0.19,-0.57,-0.10
22.892,0.10,-0.38,-0.13
22.897,0.02,-0.14,-0.15
22.902,-0.08,0.12,-0.18
22.907,-0.17,-0.04,-0.14
22.914,-0.20,-0.15,0.02
22.917,-0.16,-0.30,0.30
22.922,-0.15,-0.63,0.49
22.943,-0.07,-0.87,0.50
22.944,0.03,-1.02,0.48
22.945,0.12,-1.09,0.36
22.945,0.21,-1.16,0.28
22.947,0.18,-1.12,0.24
22.952,0.02,-0.99,0.23
22.957,-0.08,-0.90,0.27
22.962,-0.05,-1.03,0.37
22.967,0.05,-1.13,0.32
22.972,0.04,-1.12,0.31
22.977,-0.03,-0.93,0.26
22.983,-0.13,-0.57,0.14
22.988,-0.22,-0.25,0.21
22.993,-0.22,-0.09,0.28
22.998,-0.21,-0.03,0.32
23.003,-0.24,-0.06,0.33
23.008,-0.11,-0.19,0.31
23.017,0.06,-0.42,0.39
23.018,0.09,-0.76,0.45
23.023,0.22,-1.14,0.32
23.054,0.46,-1.38,0.09
23.055,0.57,-1.52,-0.05
23.056,0.49,-1.49,-0.20
23.056,0.31,-1.21,-0.38
23.057,0.17,-0.92,-0.54
23.057,0.14,-0.60,-0.71
23.058,0.13,-0.24,-0.86
23.063,0.08,-0.00,-1.12
23.068,0.02,0.08,-1.23
23.073,-0.08,0.03,-1.06
23.078,-0.25,-0.08,-0.86
23.083,-0.37,-0.16,-0.67
23.088,-0.37,-0.27,-0.60
23.093,-0.24,-0.59,-0.54
23.098,-0.12,-0.81,-0.51
23.103,-0.15,-0.70,-0.51
23.108,-0.30,-0.56,-0.33
23.116,-0.24,-0.56,-0.15
23.118,-0.12,-0.67,-0.05
23.123,-0.13,-0.67,0.06
23.142,-0.18,-0.49,0.12
23.144,-0.23,-0.29,0.10
23.145,-0.26,-0.10,0.14
23.145,-0.25,-0.04,0.20
23.148,-0.26,0.08,0.19
23.153,-0.18,0.22,0.17
23.159,-0.06,0.04,0.13
23.167,0.11,-0.44,0.11
23.168,0.17,-0.79,0.20
23.174,0.12,-0.79,0.37
23.185,-0.08,-0.47,0.52
23.187,-0.17,-0.19,0.50
23.189,-0.00,-0.32,0.58
23.194,0.04,-0.50,0.72
23.202,0.07,-0.54,0.74
23.204,0.13,-0.43,0.62
23.210,0.28,-0.43,0.40
23.220,0.52,-0.62,0.25
23.221,0.61,-0.76,0.32
23.224,0.65,-0.52,0.24
23.250,0.65,-0.14,0.28
23.252,0.53,0.07,0.52
23.252,0.48,-0.07,0.65
23.253,0.56,0.08,0.67
23.254,0.57,0.16,0.78
23.255,0.55,0.23,0.85
23.259,0.64,-0.03,0.91
23.264,0.62,-0.29,0.82
23.269,0.71,-0.48,0.60
23.274,0.81,-0.81,0.40
23.288,0.91,-1.14,0.22
23.289,0.90,-1.22,0.10
23.290,0.82,-1.06,0.05
23.294,0.67,-0.86,-0.24
23.302,0.42,-0.60,-0.30
23.304,0.34,-0.45,-0.44
23.309,0.26,-0.33,-0.50
23.317,0.17,-0.19,-0.34
23.319,-0.05,0.00,-0.11
23.324,-0.17,0.18,0.02
23.359,-0.23,0.37,0.10
23.360,-0.31,0.42,0.18
23.360,-0.51,0.42,0.32
23.361,-0.63,0.38,0.34
23.361,-0.63,0.23,0.36
23.361,-0.56,0.03,0.37
23.364,-0.38,-0.48,0.39
23.365,-0.26,-0.82,0.19
23.370,-0.18,-0.91,0.17
23.375,-0.29,-1.13,0.02
23.380,-0.25,-0.86,-0.08
23.385,-0.37,-0.62,0.00
23.393,-0.58,-0.42,0.08
23.395,-0.60,0.02,0.06
23.400,-0.71,0.47,-0.00
23.405,-0.78,0.79,-0.03
23.410,-0.87,0.85,-0.17
23.424,-0.93,0.78,-0.16
23.425,-0.74,0.65,-0.25
23.426,-0.63,0.41,-0.32
23.430,-0.39,0.22,-0.22
23.435,-0.27,0.20,-0.09
23.440,-0.14,0.04,-0.19
23.448,0.05,0.02,-0.01
23.450,0.35,-0.09,0.01
23.455,0.48,-0.04,0.30
23.461,0.46,0.02,0.50
23.466,0.38,0.28,0.59
23.470,0.55,0.53,0.62
23.478,0.61,0.58,0.51
23.480,0.71,0.56,0.57
23.486,0.77,0.42,0.54
23.490,0.95,0.55,0.50
23.496,1.00,0.55,0.28
23.496,1.27,0.41,0.28
23.502,1.31,0.42,0.26
23.508,1.15,0.34,0.43
23.511,1.09,0.36,0.22
23.531,1.05,0.36,0.17
23.532,0.96,0.07,0.10
23.533,0.93,0.21,0.19
23.535,0.82,0.29,0.21
23.539,0.54,0.27,0.56
23.541,0.41,0.29,0.84
23.546,0.34,0.28,0.78
23.551,0.36,0.11,0.75
23.556,0.49,-0.05,0.72
23.561,0.60,-0.26,0.62
23.568,0.50,-0.26,0.59
23.571,0.35,-0.23,0.61
23.576,0.16,0.01,0.37
23.581,0.05,0.14,0.08
23.586,-0.03,0.29,0.02
23.591,-0.23,0.40,-0.09
23.601,-0.21,0.41,-0.22
23.602,-0.22,0.46,-0.26
23.606,-0.37,0.48,-0.17
23.613,-0.58,0.22,-0.25
23.629,-0.82,-0.06,-0.29
23.630,-0.89,-0.01,-0.43
23.630,-0.92,0.21,-0.52
23.636,-0.74,0.24,-0.55
23.637,-0.58,0.07,-0.57
23.641,-0.68,0.02,-0.57
23.646,-0.71,0.11,-0.44
23.651,-0.83,-0.06,-0.29
23.659,-1.04,-0.18,-0.09
23.661,-1.31,-0.19,0.12
23.667,-1.59,-0.10,0.43
23.672,-1.90,-0.38,0.65
23.677,-2.36,-1.53,1.39
23.682,-2.38,-1.53,1.29
23.689,-2.38,-0.87,0.86
23.692,-2.25,-0.38,0.69
23.697,-1.70,0.29,0.22
23.702,-0.97,0.87,-0.23
23.707,-0.02,1.12,-0.51
23.712,0.79,1.22,-0.56
23.720,1.19,1.15,-0.61
23.722,1.53,1.08,-0.59
23.727,1.78,0.97,-0.51
23.732,1.84,0.83,-0.45
23.743,1.85,0.45,-0.40
23.744,1.78,0.01,-0.33
23.752,1.68,-0.24,-0.25
23.754,1.49,-0.35,-0.12
23.757,1.18,-0.48,0.01
23.763,0.95,-0.72,0.17
23.767,0.68,-0.97,0.31
23.772,0.36,-1.00,0.49
23.792,0.08,-0.99,0.63
23.793,-0.12,-1.16,0.72
23.794,-0.43,-1.34,0.73
23.794,-0.88,-1.34,0.77
23.798,-1.34,-1.38,0.86
23.803,-1.57,-1.64,0.96
23.808,-1.49,-2.05,0.82
23.813,-1.37,-2.57,0.52
23.832,-1.40,-2.86,0.23
23.833,-1.42,-2.77,-0.13
23.833,-1.44,-2.44,-0.52
23.834,-1.41,-2.06,-0.58
23.838,-1.20,-1.64,-0.41
23.843,-1.00,-1.18,-0.25
23.848,-0.82,-0.80,0.04
23.853,-0.53,-0.55,0.29
23.858,-0.20,-0.40,0.42
23.863,0.04,-0.22,0.43
23.868,0.32,-0.03,0.38
23.873,0.77,-0.11,0.44
23.878,1.19,-0.37,0.44
23.884,1.52,-0.67,0.23
23.889,1.86,-1.05,0.03
23.893,2.18,-1.42,-0.11
23.898,2.51,-1.78,-0.36
23.903,2.69,-2.04,-0.52
23.908,2.73,-2.18,-0.37
23.914,2.63,-2.10,-0.09
23.919,2.33,-2.01,0.21
23.923,1.98,-1.90,0.45
23.928,1.61,-1.58,0.58
23.949,1.42,-1.41,0.83
23.950,1.42,-1.51,1.02
23.951,1.30,-1.62,1.08
23.952,1.10,-1.80,1.05
23.953,0.97,-1.94,0.90
23.959,0.83,-1.99,0.72
23.963,0.67,-1.99,0.53
23.968,0.46,-1.89,0.34
23.973,0.31,-1.92,0.01
23.978,0.18,-1.91,-0.13
23.983,0.04,-1.89,-0.22
23.989,-0.02,-1.99,-0.35
23.994,-0.23,-1.93,-0.32
23.999,-0.60,-1.57,-0.43
24.005,-0.59,-1.36,-0.45
24.009,-0.57,-1.24,-0.49
24.014,-0.55,-1.14,-0.54
24.039,-0.52,-0.78,-0.68
24.040,-0.54,-0.37,-0.89
24.040,-0.30,-0.13,-0.98
24.041,-0.04,0.07,-1.06
24.041,0.36,0.25,-1.07
24.044,0.72,0.28,-0.96
24.049,0.98,0.32,-0.81
24.054,1.25,0.31,-0.66
24.059,1.42,0.06,-0.43
24.064,1.32,-0.28,-0.27
24.069,1.02,-0.50,-0.08
24.074,0.51,-0.53,0.08
24.079,-0.12,-0.34,0.22
24.084,-0.52,-0.22,0.27
24.090,-0.97,-0.22,0.28
24.094,-1.08,-0.43,0.15
24.099,-0.91,-0.56,-0.04
24.106,-0.97,-0.51,-0.17
24.109,-1.31,-0.30,-0.13
24.114,-1.60,0.01,-0.14
24.130,-1.87,0.15,0.13
24.132,-2.32,0.31,0.45
24.133,-2.71,0.44,0.50
24.134,-2.96,0.61,0.80
24.139,-3.30,0.56,0.97
24.144,-3.94,0.47,0.68
24.150,-4.75,0.06,0.08
24.154,-5.44,-0.33,-0.45
24.160,-5.74,-0.30,-1.06
24.165,-5.66,-0.20,-1.43
24.170,-5.45,0.10,-1.50
24.175,-5.12,0.37,-1.52
24.180,-4.64,0.70,-1.29
24.185,-4.00,0.91,-1.22
24.190,-3.34,1.04,-0.97
24.195,-2.57,1.08,-0.56
24.200,-1.80,1.23,-0.48
24.206,-1.06,1.08,-0.74
24.210,-0.56,1.04,-0.94
24.215,-0.48,1.10,-1.16
24.238,-0.65,1.27,-1.28
24.239,-0.64,1.35,-1.10
24.240,-1.02,1.50,-0.86
24.240,-1.23,1.72,-0.44
24.240,-1.21,1.61,-0.23
24.245,-1.38,1.57,0.17
24.250,-1.66,1.60,0.65
24.255,-1.84,1.59,0.97
24.260,-2.14,1.74,1.46
24.265,-2.25,1.88,1.93
24.270,-2.40,2.03,2.17
24.275,-2.39,2.01,2.30
24.280,-2.24,2.05,2.45
24.285,-1.94,1.99,2.59
24.290,-1.70,1.91,2.65
24.296,-1.26,1.85,2.56
24.301,-0.99,1.89,2.53
24.307,-0.61,1.88,2.51
24.308,-0.30,2.03,2.53
24.311,-0.06,2.00,2.34
24.316,0.23,1.88,2.28
24.342,0.62,1.77,2.21
24.343,0.91,1.65,2.13
24.343,0.99,1.61,2.25
24.343,0.92,1.65,2.17
24.344,0.76,1.62,2.15
24.346,0.50,1.76,2.25
24.351,0.20,1.79,2.13
24.356,0.13,1.74,1.91
24.361,0.04,1.90,1.73
24.366,-0.05,1.71,1.64
24.371,-0.13,1.55,1.75
24.376,-0.18,1.45,1.70
24.381,-0.17,1.36,1.64
24.387,-0.10,1.19,1.50
24.391,-0.06,1.07,1.31
24.397,-0.05,0.78,1.06
24.401,-0.08,0.54,0.82
24.407,-0.10,0.41,0.48
24.411,-0.22,0.47,0.33
24.416,-0.26,0.51,0.26
24.440,-0.30,0.51,0.14
24.442,-0.20,0.36,0.07
24.442,-0.10,0.34,-0.10
24.443,0.19,0.44,-0.26
24.443,0.43,0.45,-0.34
24.446,0.67,0.41,-0.66
24.451,0.97,0.49,-0.68
24.457,1.31,0.67,-0.48
24.462,1.67,0.82,-0.15
24.467,2.12,0.87,0.11
24.472,2.48,0.71,0.32
24.477,2.79,0.52,0.46
24.482,3.04,0.42,0.50
24.487,3.14,0.32,0.57
24.492,3.01,0.28,0.77
24.497,2.97,0.11,0.39
24.502,3.00,-0.05,-0.02
24.508,2.87,-0.13,-0.49
24.512,2.55,-0.14,-0.94
24.517,2.24,-0.09,-1.12
24.542,1.99,0.16,-1.10
24.543,1.77,0.37,-1.03
24.543,1.65,0.56,-0.82
24.544,1.69,0.77,-0.34
24.544,1.75,0.80,-0.00
24.547,1.82,0.68,0.28
24.552,1.88,0.49,0.52
24.557,1.88,0.16,0.46
24.562,1.78,-0.06,0.14
24.567,1.72,-0.14,-0.18
24.572,1.73,-0.16,-0.58
24.577,1.66,0.04,-0.93
24.582,1.44,0.32,-1.05
24.587,-0.26,2.08,0.62
24.593,-0.48,1.72,1.57
24.598,1.22,-0.41,0.26
24.603,2.79,-1.70,-1.16
24.608,3.41,-2.00,-2.11
24.612,2.80,-1.52,-2.59
24.617,1.84,-0.84,-2.96
24.642,1.40,-0.29,-3.40
24.643,1.40,0.01,-3.61
24.643,1.53,0.04,-3.58
24.644,1.52,0.02,-3.29
24.644,1.35,0.05,-2.91
24.648,1.21,0.08,-2.62
24.653,-0.05,0.74,-1.89
24.658,-0.83,1.24,-1.12
24.663,0.04,0.53,-1.30
24.668,0.82,-0.67,-1.81
24.673,1.13,-1.33,-2.16
24.678,0.79,-1.14,-2.35
24.683,-0.07,-0.88,-1.85
24.688,-1.56,-1.52,0.70
24.693,-4.90,-3.56,6.37
24.698,-9.12,-4.92,10.49
24.703,-9.01,-3.85,6.69
24.713,-5.60,-2.22,-0.07
24.714,-3.80,-1.22,-2.90
24.718,-2.42,-0.61,-3.13
24.745,-1.12,-0.39,-2.38
24.746,-0.17,-0.47,-1.48
24.747,0.12,-0.48,-0.89
24.747,-0.34,0.12,-0.48
24.747,-0.86,0.53,-0.67
24.748,-0.44,-0.25,-1.39
24.753,-0.02,-0.93,-2.11
24.758,0.28,-1.41,-2.53
24.763,0.30,-1.62,-2.56
24.768,0.33,-1.76,-1.81
24.774,0.18,-1.79,-0.44
24.779,0.05,-1.61,0.58
24.784,-0.07,-1.29,0.43
24.789,-0.10,-1.20,-0.04
24.794,0.04,-1.13,0.20
24.801,-0.05,-0.83,1.31
24.805,-0.11,-0.66,1.19
24.814,-0.23,-0.48,0.65
24.815,-0.27,-0.36,0.71
24.819,-0.25,-0.28,1.12
24.824,-0.13,-0.28,1.83
24.880,0.17,-0.18,2.31
24.882,0.26,-0.22,2.40
24.884,0.24,-0.23,2.16
24.885,0.11,-0.18,1.67
24.886,-0.16,-0.13,1.15
24.887,-0.51,-0.08,0.66
24.888,-0.74,-0.15,0.25
24.890,-0.90,-0.35,-0.05
24.891,-1.00,-0.56,-0.49
24.892,-1.14,-0.70,-0.88
24.894,-1.35,-0.77,-1.02
24.895,-1.45,-0.95,-1.08
24.897,-1.32,-1.14,-1.14
24.898,-1.02,-1.44,-1.02
24.901,-0.68,-1.70,-0.99
24.905,-0.13,-1.98,-0.79
24.910,0.23,-2.03,-0.42
24.915,0.56,-2.01,-0.08
24.920,0.82,-1.67,0.13
24.925,1.04,-1.30,0.16
24.932,1.20,-0.90,0.15
24.935,1.31,-0.73,0.05
24.940,1.41,-0.57,-0.12
25.016,1.28,-0.37,-0.22
25.018,1.21,-0.37,-0.27
25.020,0.84,-0.44,-0.33
25.021,0.39,-0.30,-0.38
25.022,-0.19,-0.17,-0.49
25.024,-0.60,-0.14,-0.43
25.026,-0.98,-0.01,-0.51
25.028,-1.31,-0.09,-0.50
25.030,-1.30,-0.27,-0.78
25.033,-1.17,-0.29,-0.66
25.034,-0.97,-0.45,-0.60
25.035,-0.92,-0.59,-0.47
25.036,-0.91,-0.71,-0.20
25.037,-0.88,-0.78,-0.34
25.038,-0.62,-0.70,-0.06
25.038,-0.43,-0.80,0.13
25.039,-0.21,-0.63,0.24
25.041,-0.06,-0.36,0.32
25.041,0.26,0.02,0.17
25.042,0.44,0.21,0.01
25.046,0.76,0.32,-0.39
25.051,0.92,0.56,-0.76
25.056,1.02,0.62,-0.96
25.068,1.01,0.70,-1.20
25.071,1.01,0.71,-1.41
25.072,0.69,0.72,-1.42
25.077,0.61,0.61,-1.39
25.118,0.38,0.64,-1.02
25.120,0.05,0.49,-0.56
25.120,-0.21,0.38,-0.42
25.121,-0.46,0.24,-0.30
25.122,-0.68,0.06,-0.29
25.122,-0.78,0.01,-0.23
25.123,-0.93,-0.07,-0.35
25.123,-1.20,-0.12,-0.56
25.123,-1.22,-0.16,-0.84
25.124,-0.86,-0.17,-1.02
25.126,-0.45,-0.16,-1.17
25.131,-0.39,0.10,-1.28
25.136,-0.30,0.21,-1.22
25.141,-0.36,0.26,-1.46
25.146,-0.35,0.32,-1.38
25.151,-0.21,0.42,-1.14
25.156,-0.12,0.34,-0.92
25.184,-0.06,0.26,-0.86
25.185,0.01,0.29,-0.80
25.187,0.15,0.20,-0.75
25.187,0.15,0.16,-0.50
25.188,0.06,0.05,-0.06
25.188,0.05,-0.02,0.26
25.191,-0.00,-0.09,0.35
25.196,-0.03,0.03,0.30
25.202,-0.20,0.16,0.11
25.206,-0.24,0.32,-0.10
25.218,-0.26,0.60,-0.30
25.220,-0.26,0.73,-0.35
25.221,-0.30,0.89,-0.39
25.227,-0.43,0.95,-0.44
25.260,-0.33,0.98,-0.56
25.262,-0.23,1.03,-0.55
25.263,-0.20,0.84,-0.45
25.265,-0.13,0.79,-0.39
25.266,-0.19,0.74,-0.13
25.267,-0.19,0.73,-0.16
25.267,-0.11,0.84,-0.26
25.267,-0.07,1.01,-0.38
25.272,-0.05,1.21,-0.41
25.276,0.00,1.28,-0.44
25.282,0.14,1.31,-0.37
25.287,0.21,1.43,-0.39
25.292,0.26,1.48,-0.41
25.297,0.28,1.50,-0.19
25.302,0.23,1.48,-0.00
25.307,0.34,1.43,0.16
25.323,0.37,1.24,0.26
25.324,0.28,1.14,0.35
25.324,0.22,1.08,0.47
25.327,0.16,1.01,0.33
25.375,0.12,0.92,0.20
25.377,0.37,0.59,0.06
25.379,0.46,0.36,-0.09
25.380,0.25,0.33,-0.19
25.381,0.03,0.39,-0.19
25.382,-0.07,0.41,-0.07
25.385,-0.15,0.42,0.19
25.387,-0.27,0.43,0.29
25.388,-0.37,0.52,0.24
25.389,-0.39,0.48,-0.02
25.390,-0.23,0.42,-1.67
25.390,-0.21,0.40,-1.96
25.393,-0.20,0.17,-1.18
25.398,-0.24,0.06,-0.89
25.403,-0.38,0.11,-0.74
25.408,-0.29,0.03,-0.67
25.417,-0.37,0.05,-0.61
25.419,-0.59,0.19,-0.42
25.423,-0.64,0.21,-0.13
25.428,-0.63,0.22,0.20
25.457,-0.54,0.23,0.48
25.458,-0.50,0.17,0.56
25.459,-0.47,0.13,0.67
25.460,-0.28,0.05,0.77
25.461,-0.13,0.04,0.84
25.462,-0.12,0.19,0.79
25.463,-0.19,0.41,0.62
25.482,-0.22,0.59,0.48
25.484,-0.15,0.67,0.26
25.484,-0.09,0.72,-0.09
25.485,0.05,0.67,-0.46
25.505,0.21,0.45,-0.60
25.506,0.26,0.15,-0.52
25.507,0.20,-0.07,-0.48
25.508,0.12,-0.12,-0.46
25.509,0.08,-0.04,-0.37
25.528,-0.23,0.12,-0.44
25.529,-0.61,0.29,-0.61
25.530,-0.54,0.36,-0.62
25.531,-0.31,0.41,-0.49
25.534,-0.16,0.44,-0.44
25.538,0.02,0.48,-0.31
25.543,0.18,0.55,-0.09
25.551,0.22,0.58,-0.02
25.553,0.15,0.49,-0.03
25.558,0.01,0.39,-0.07
25.572,0.17,0.47,-0.08
25.574,0.28,0.63,-0.05
25.575,0.27,0.81,-0.07
25.579,0.20,1.01,-0.12
25.584,0.16,1.07,-0.19
25.589,0.09,1.11,-0.31
25.594,-0.04,1.09,-0.41
25.600,-0.04,0.95,-0.52
25.604,0.07,0.83,-0.51
25.609,0.14,0.71,-0.42
25.635,0.28,0.70,-0.21
25.636,0.35,1.09,-0.07
25.638,0.12,1.07,-0.03
25.639,0.13,1.50,-0.06
25.640,-0.20,1.31,0.00
25.640,-0.73,0.51,-0.13
25.644,-0.44,0.23,-0.12
25.649,-0.03,-0.03,0.03
25.654,0.16,-0.03,0.28
25.659,0.13,0.00,0.33
25.664,0.02,-0.04,0.52
25.669,-0.06,-0.00,0.71
25.674,-0.26,-0.00,0.98
25.679,-0.44,0.01,0.96
25.684,-0.46,0.06,0.91
25.689,-0.47,0.29,0.79
25.695,-0.41,0.44,0.74
25.702,-0.39,0.61,0.77
25.705,-0.36,0.69,0.63
25.709,-0.33,0.79,0.31
25.715,-0.23,0.80,0.15
25.749,-0.29,0.96,-0.21
25.750,-0.46,1.05,-0.46
25.750,-0.52,1.02,-0.55
25.750,-0.36,0.87,-0.56
25.751,-0.41,0.67,-0.55
25.752,-0.32,0.48,-0.56
25.753,-0.37,0.25,-0.70
25.755,-0.30,0.06,-0.74
25.760,-0.42,-0.11,-0.58
25.769,-0.43,-0.15,-0.44
25.770,-0.31,-0.28,-0.03
25.775,-0.43,-0.24,0.15
25.780,-0.42,-0.13,0.48
25.785,-0.45,-0.08,0.62
25.790,-0.44,-0.16,0.73
25.795,-0.11,-0.08,0.79
25.819,-0.19,0.16,0.50
25.821,-0.61,-0.09,-0.01
25.821,-0.48,-0.28,0.00
25.821,-0.30,-0.49,-0.05
25.822,-0.22,-0.42,-0.31
25.825,-0.08,-0.38,-0.35
25.830,-0.10,-0.13,-0.57
25.844,-0.27,-0.25,-0.75
25.845,-0.19,-0.28,-0.95
25.847,-0.27,-0.15,-0.76
25.850,-0.27,-0.03,-0.60
25.855,-0.37,-0.01,-0.44
25.860,-0.45,0.09,-0.08
25.865,-0.42,0.17,0.10
25.871,-0.42,0.56,0.35
25.875,-0.43,0.88,0.61
